delay,freq,condition,trials.thisRepN,trials.thisTrialN,trials.thisN,trials.thisIndex,polygon.started,polygon_2.started,key_resp.started,polygon.stopped,key_resp.keys,key_resp.rt,sound_1.started,text.started,textbox.started,button.started,textbox.text,button.numClicks,button.timesOn,button.timesOff,sound_1.stopped,participant,session,date,expName,psychopyVersion,frameRate
0.7,1000,exp,0,1,1,8,20.595923207933083,21.588264749851078,21.588264749851078,21.588264749851078,space,0.6666010830085725,22.967918541577333,23.42948937485926,23.42948937485926,23.42948937485926,6,2,"[6.970356540987268, 1.3543444590177387]","[6.970359040889889, 1.3543465421535075]",,964143,001,2023-10-27_12h00.37.384,tutorial7_intentional_binding,2022.2.4,None
0.4,1000,exp,0,2,2,7,24.77943820785731,25.76415141695179,25.76415141695179,25.770731332944706,space,0.6570146658923477,26.830878833603734,27.291081917006522,27.291081917006522,27.291081917006522,12,3,"[6.970356540987268, 1.3543444590177387, 2.5093380000907928]","[6.970359040889889, 1.3543465421535075, 2.509340250166133]",27.291081917006522,964143,001,2023-10-27_12h00.37.384,tutorial7_intentional_binding,2022.2.4,None
0.7,1000,exp,0,5,5,11,41.81307279202156,42.79783704201691,42.79783704201691,42.804612499894574,space,0.8874235830735415,44.397954958553115,44.85708854184486,44.85708854184486,44.85708854184486,123,6,"[6.970356540987268, 1.3543444590177387, 2.5093380000907928, 1.6533958341460675, 1.2592608330305666, 3.3938830827828497]","[6.970359040889889, 1.3543465421535075, 2.509340250166133, 1.6533978341612965, 1.259263041894883, 3.393885707948357]",44.85708854184486,964143,001,2023-10-27_12h00.37.384,tutorial7_intentional_binding,2022.2.4,None
0.1,1000,exp,0,6,6,6,48.24628495797515,49.23948916699737,49.23948916699737,49.23948916699737,space,3.147982249269262,52.50414104160542,52.965076041873544,52.965076041873544,52.965076041873544,6,7,"[6.970356540987268, 1.3543444590177387, 2.5093380000907928, 1.6533958341460675, 1.2592608330305666, 3.3938830827828497, 1.2697460828348994]","[6.970359040889889, 1.3543465421535075, 2.509340250166133, 1.6533978341612965, 1.259263041894883, 3.393885707948357, 1.2697479999624193]",,964143,001,2023-10-27_12h00.37.384,tutorial7_intentional_binding,2022.2.4,None
0.1,1000,exp,0,7,7,9,54.229987791972235,55.213048707926646,55.213048707926646,55.21816183300689,space,0.9527268330566585,56.28105633362817,56.74120233301073,56.74120233301073,56.74120233301073,56,8,"[6.970356540987268, 1.3543444590177387, 2.5093380000907928, 1.6533958341460675, 1.2592608330305666, 3.3938830827828497, 1.2697460828348994, 1.975330375134945]","[6.970359040889889, 1.3543465421535075, 2.509340250166133, 1.6533978341612965, 1.259263041894883, 3.393885707948357, 1.2697479999624193, 1.9753325839992613]",,964143,001,2023-10-27_12h00.37.384,tutorial7_intentional_binding,2022.2.4,None
0.4,1000,exp,0,8,8,10,58.713394874939695,59.69802249991335,59.69802249991335,59.70517420792021,space,1.4083662079647183,61.520945041502515,61.98098799982108,61.98098799982108,61.98098799982108,276,9,"[6.970356540987268, 1.3543444590177387, 2.5093380000907928, 1.6533958341460675, 1.2592608330305666, 3.3938830827828497, 1.2697460828348994, 1.975330375134945, 6.219619625015184]","[6.970359040889889, 1.3543465421535075, 2.509340250166133, 1.6533978341612965, 1.259263041894883, 3.393885707948357, 1.2697479999624193, 1.9753325839992613, 6.2196223749779165]",,964143,001,2023-10-27_12h00.37.384,tutorial7_intentional_binding,2022.2.4,None
0.4,1000,exp,0,9,9,4,68.19684337,69.18144854204729,69.18144854204729,69.18890362489037,space,0.8222812910098583,70.40495887451495,70.86555929202586,70.86555929202586,70.86555929202586,176,10,"[6.970356540987268, 1.3543444590177387, 2.5093380000907928, 1.6533958341460675, 1.2592608330305666, 3.3938830827828497, 1.2697460828348994, 1.975330375134945, 6.219619625015184, 2.718223250005394]","[6.970359040889889, 1.3543465421535075, 2.509340250166133, 1.6533978341612965, 1.259263041894883, 3.393885707948357, 1.2697479999624193, 1.9753325839992613, 6.2196223749779165, 2.718225250020623]",,964143,001,2023-10-27_12h00.37.384,tutorial7_intentional_binding,2022.2.4,None
0.7,1000,exp,0,10,10,5,73.5803205,74.56508020800538,74.56508020800538,74.57247212482616,space,1.356734833214432,76.63122104161108,77.09216300002299,77.09216300002299,77.09216300002299,34,11,"[6.970356540987268, 1.3543444590177387, 2.5093380000907928, 1.6533958341460675, 1.2592608330305666, 3.3938830827828497, 1.2697460828348994, 1.975330375134945, 6.219619625015184, 2.718223250005394, 1.7921304169576615]","[6.970359040889889, 1.3543465421535075, 2.509340250166133, 1.6533978341612965, 1.259263041894883, 3.393885707948357, 1.2697479999624193, 1.9753325839992613, 6.2196223749779165, 2.718225250020623, 1.7921325420029461]",,964143,001,2023-10-27_12h00.37.384,tutorial7_intentional_binding,2022.2.4,None
0.1,1000,exp,0,11,11,3,78.88049345789477,79.86506983288564,79.86506983288564,79.87278537498787,space,1.2499869582243264,81.22145079152348,81.68144625,81.68144625,81.68144625,45,12,"[6.970356540987268, 1.3543444590177387, 2.5093380000907928, 1.6533958341460675, 1.2592608330305666, 3.3938830827828497, 1.2697460828348994, 1.975330375134945, 6.219619625015184, 2.718223250005394, 1.7921304169576615, 1.68609350011684]","[6.970359040889889, 1.3543465421535075, 2.509340250166133, 1.6533978341612965, 1.259263041894883, 3.393885707948357, 1.2697479999624193, 1.9753325839992613, 6.2196223749779165, 2.718225250020623, 1.7921325420029461, 1.6860957089811563]",,964143,001,2023-10-27_12h00.37.384,tutorial7_intentional_binding,2022.2.4,None
0.7,1000,exp,1,0,12,11,83.36379520804621,84.34855808294378,84.34855808294378,84.35590254189447,space,1.367199125001207,86.42158687,86.88257158291526,86.88257158291526,86.88257158291526,100,13,"[6.970356540987268, 1.3543444590177387, 2.5093380000907928, 1.6533958341460675, 1.2592608330305666, 3.3938830827828497, 1.2697460828348994, 1.975330375134945, 6.219619625015184, 2.718223250005394, 1.7921304169576615, 1.68609350011684, 2.2686470421031117]","[6.970359040889889, 1.3543465421535075, 2.509340250166133, 1.6533978341612965, 1.259263041894883, 3.393885707948357, 1.2697479999624193, 1.9753325839992613, 6.2196223749779165, 2.718225250020623, 1.7921325420029461, 1.6860957089811563, 2.26864904188551]",,964143,001,2023-10-27_12h00.37.384,tutorial7_intentional_binding,2022.2.4,None
0.4,1000,exp,1,2,14,4,97.51399195799604,98.49874416692182,98.49874416692182,98.50613337,space,1.061653041979298,99.97176762,100.43217187491246,100.43217187491246,100.43217187491246,400,15,"[6.970356540987268, 1.3543444590177387, 2.5093380000907928, 1.6533958341460675, 1.2592608330305666, 3.3938830827828497, 1.2697460828348994, 1.975330375134945, 6.219619625015184, 2.718223250005394, 1.7921304169576615, 1.68609350011684, 2.2686470421031117, 4.776966624893248, 2.385246125049889]","[6.970359040889889, 1.3543465421535075, 2.509340250166133, 1.6533978341612965, 1.259263041894883, 3.393885707948357, 1.2697479999624193, 1.9753325839992613, 6.2196223749779165, 2.718225250020623, 1.7921325420029461, 1.6860957089811563, 2.26864904188551, 4.776968624908477, 2.3852483751252294]",,964143,001,2023-10-27_12h00.37.384,tutorial7_intentional_binding,2022.2.4,None
0.7,1000,exp,1,3,15,8,102.81408991687931,103.79876495804638,103.79876495804638,103.80647479183972,space,1.8846887911204249,106.39872116671565,106.86053812503815,106.86053812503815,106.86053812503815,149,16,"[6.970356540987268, 1.3543444590177387, 2.5093380000907928, 1.6533958341460675, 1.2592608330305666, 3.3938830827828497, 1.2697460828348994, 1.975330375134945, 6.219619625015184, 2.718223250005394, 1.7921304169576615, 1.68609350011684, 2.2686470421031117, 4.776966624893248, 2.385246125049889, 2.1420566660817713]","[6.970359040889889, 1.3543465421535075, 2.509340250166133, 1.6533978341612965, 1.259263041894883, 3.393885707948357, 1.2697479999624193, 1.9753325839992613, 6.2196223749779165, 2.718225250020623, 1.7921325420029461, 1.6860957089811563, 2.26864904188551, 4.776968624908477, 2.3852483751252294, 2.142058749916032]",,964143,001,2023-10-27_12h00.37.384,tutorial7_intentional_binding,2022.2.4,None
0.1,1000,exp,1,4,16,3,108.99756733304821,109.98208608292043,109.98208608292043,109.98999374988489,space,0.8348931660875678,110.9317624166763,111.39346816693433,111.39346816693433,111.39346816693433,287,17,"[6.970356540987268, 1.3543444590177387, 2.5093380000907928, 1.6533958341460675, 1.2592608330305666, 3.3938830827828497, 1.2697460828348994, 1.975330375134945, 6.219619625015184, 2.718223250005394, 1.7921304169576615, 1.68609350011684, 2.2686470421031117, 4.776966624893248, 2.385246125049889, 2.1420566660817713, 3.492726792115718]","[6.970359040889889, 1.3543465421535075, 2.509340250166133, 1.6533978341612965, 1.259263041894883, 3.393885707948357, 1.2697479999624193, 1.9753325839992613, 6.2196223749779165, 2.718225250020623, 1.7921325420029461, 1.6860957089811563, 2.26864904188551, 4.776968624908477, 2.3852483751252294, 2.142058749916032, 3.492729000048712]",,964143,001,2023-10-27_12h00.37.384,tutorial7_intentional_binding,2022.2.4,None
0.4,1000,exp,1,5,17,7,114.88104904186912,115.86548162484542,115.86548162484542,115.87321858294308,space,0.5588054161053151,116.83922183356869,117.29837337485515,117.29837337485515,117.29837337485515,56,18,"[6.970356540987268, 1.3543444590177387, 2.5093380000907928, 1.6533958341460675, 1.2592608330305666, 3.3938830827828497, 1.2697460828348994, 1.975330375134945, 6.219619625015184, 2.718223250005394, 1.7921304169576615, 1.68609350011684, 2.2686470421031117, 4.776966624893248, 2.385246125049889, 2.1420566660817713, 3.492726792115718, 1.5364163341000676]","[6.970359040889889, 1.3543465421535075, 2.509340250166133, 1.6533978341612965, 1.259263041894883, 3.393885707948357, 1.2697479999624193, 1.9753325839992613, 6.2196223749779165, 2.718225250020623, 1.7921325420029461, 1.6860957089811563, 2.26864904188551, 4.776968624908477, 2.3852483751252294, 2.142058749916032, 3.492729000048712, 1.53641829197295]",117.29837337485515,964143,001,2023-10-27_12h00.37.384,tutorial7_intentional_binding,2022.2.4,None
0.7,1000,exp,1,6,18,5,118.8310346249491,119.81567408284172,119.81567408284172,119.82385695795529,space,0.9243684581015259,121.45544958353663,121.91718516685069,121.91718516685069,121.91718516685069,98,19,"[6.970356540987268, 1.3543444590177387, 2.5093380000907928, 1.6533958341460675, 1.2592608330305666, 3.3938830827828497, 1.2697460828348994, 1.975330375134945, 6.219619625015184, 2.718223250005394, 1.7921304169576615, 1.68609350011684, 2.2686470421031117, 4.776966624893248, 2.385246125049889, 2.1420566660817713, 3.492726792115718, 1.5364163341000676, 1.352109625004232]","[6.970359040889889, 1.3543465421535075, 2.509340250166133, 1.6533978341612965, 1.259263041894883, 3.393885707948357, 1.2697479999624193, 1.9753325839992613, 6.2196223749779165, 2.718225250020623, 1.7921325420029461, 1.6860957089811563, 2.26864904188551, 4.776968624908477, 2.3852483751252294, 2.142058749916032, 3.492729000048712, 1.53641829197295, 1.352111625019461]",,964143,001,2023-10-27_12h00.37.384,tutorial7_intentional_binding,2022.2.4,None
0.1,1000,exp,1,7,19,6,123.26444175001234,124.25593879190274,124.25593879190274,124.25593879190274,space,0.8978127080481499,125.26543391665133,125.72406070795842,125.72406070795842,125.72406070795842,417,20,"[6.970356540987268, 1.3543444590177387, 2.5093380000907928, 1.6533958341460675, 1.2592608330305666, 3.3938830827828497, 1.2697460828348994, 1.975330375134945, 6.219619625015184, 2.718223250005394, 1.7921304169576615, 1.68609350011684, 2.2686470421031117, 4.776966624893248, 2.385246125049889, 2.1420566660817713, 3.492726792115718, 1.5364163341000676, 1.352109625004232, 4.193853541044518]","[6.970359040889889, 1.3543465421535075, 2.509340250166133, 1.6533978341612965, 1.259263041894883, 3.393885707948357, 1.2697479999624193, 1.9753325839992613, 6.2196223749779165, 2.718225250020623, 1.7921325420029461, 1.6860957089811563, 2.26864904188551, 4.776968624908477, 2.3852483751252294, 2.142058749916032, 3.492729000048712, 1.53641829197295, 1.352111625019461, 4.1938554579392076]",,964143,001,2023-10-27_12h00.37.384,tutorial7_intentional_binding,2022.2.4,None
0.4,1000,exp,1,8,20,10,129.91508983285166,130.89753166702576,130.89753166702576,130.90503566688858,space,0.6277163331396878,131.93912512466002,132.39958645799197,132.39958645799197,132.39958645799197,500,21,"[6.970356540987268, 1.3543444590177387, 2.5093380000907928, 1.6533958341460675, 1.2592608330305666, 3.3938830827828497, 1.2697460828348994, 1.975330375134945, 6.219619625015184, 2.718223250005394, 1.7921304169576615, 1.68609350011684, 2.2686470421031117, 4.776966624893248, 2.385246125049889, 2.1420566660817713, 3.492726792115718, 1.5364163341000676, 1.352109625004232, 4.193853541044518, 3.0355805419385433]","[6.970359040889889, 1.3543465421535075, 2.509340250166133, 1.6533978341612965, 1.259263041894883, 3.393885707948357, 1.2697479999624193, 1.9753325839992613, 6.2196223749779165, 2.718225250020623, 1.7921325420029461, 1.6860957089811563, 2.26864904188551, 4.776968624908477, 2.3852483751252294, 2.142058749916032, 3.492729000048712, 1.53641829197295, 1.352111625019461, 4.1938554579392076, 3.0355830418411642]",,964143,001,2023-10-27_12h00.37.384,tutorial7_intentional_binding,2022.2.4,None
0.1,1000,exp,1,11,23,9,145.18143158289604,146.16610433300957,146.16610433300957,146.1733524168376,space,1.9544340420980006,148.23232366663095,148.6920234579593,148.6920234579593,148.6920234579593,876,24,"[6.970356540987268, 1.3543444590177387, 2.5093380000907928, 1.6533958341460675, 1.2592608330305666, 3.3938830827828497, 1.2697460828348994, 1.975330375134945, 6.219619625015184, 2.718223250005394, 1.7921304169576615, 1.68609350011684, 2.2686470421031117, 4.776966624893248, 2.385246125049889, 2.1420566660817713, 3.492726792115718, 1.5364163341000676, 1.352109625004232, 4.193853541044518, 3.0355805419385433, 2.7700699171982706, 1.0352732909377664, 1.4440024169161916]","[6.970359040889889, 1.3543465421535075, 2.509340250166133, 1.6533978341612965, 1.259263041894883, 3.393885707948357, 1.2697479999624193, 1.9753325839992613, 6.2196223749779165, 2.718225250020623, 1.7921325420029461, 1.6860957089811563, 2.26864904188551, 4.776968624908477, 2.3852483751252294, 2.142058749916032, 3.492729000048712, 1.53641829197295, 1.352111625019461, 4.1938554579392076, 3.0355830418411642, 2.7700720001012087, 1.0352754998020828, 1.444004459073767]",,964143,001,2023-10-27_12h00.37.384,tutorial7_intentional_binding,2022.2.4,None
0.4,1000,exp,2,0,24,10,150.1319402079098,151.11609112494625,151.11609112494625,151.12345120799728,space,1.6428485412616283,153.16589979158405,153.6275538748596,153.6275538748596,153.6275538748596,345,25,"[6.970356540987268, 1.3543444590177387, 2.5093380000907928, 1.6533958341460675, 1.2592608330305666, 3.3938830827828497, 1.2697460828348994, 1.975330375134945, 6.219619625015184, 2.718223250005394, 1.7921304169576615, 1.68609350011684, 2.2686470421031117, 4.776966624893248, 2.385246125049889, 2.1420566660817713, 3.492726792115718, 1.5364163341000676, 1.352109625004232, 4.193853541044518, 3.0355805419385433, 2.7700699171982706, 1.0352732909377664, 1.4440024169161916, 0.8097910000942647]","[6.970359040889889, 1.3543465421535075, 2.509340250166133, 1.6533978341612965, 1.259263041894883, 3.393885707948357, 1.2697479999624193, 1.9753325839992613, 6.2196223749779165, 2.718225250020623, 1.7921325420029461, 1.6860957089811563, 2.26864904188551, 4.776968624908477, 2.3852483751252294, 2.142058749916032, 3.492729000048712, 1.53641829197295, 1.352111625019461, 4.1938554579392076, 3.0355830418411642, 2.7700720001012087, 1.0352754998020828, 1.444004459073767, 0.8097929160576314]",,964143,001,2023-10-27_12h00.37.384,tutorial7_intentional_binding,2022.2.4,None
0.4,1000,exp,2,1,25,7,154.43153029191308,155.42309520789422,155.42309520789422,155.42309520789422,space,1.2107951240614057,157.04956312460516,157.51176133286208,157.51176133286208,157.51176133286208,468,26,"[6.970356540987268, 1.3543444590177387, 2.5093380000907928, 1.6533958341460675, 1.2592608330305666, 3.3938830827828497, 1.2697460828348994, 1.975330375134945, 6.219619625015184, 2.718223250005394, 1.7921304169576615, 1.68609350011684, 2.2686470421031117, 4.776966624893248, 2.385246125049889, 2.1420566660817713, 3.492726792115718, 1.5364163341000676, 1.352109625004232, 4.193853541044518, 3.0355805419385433, 2.7700699171982706, 1.0352732909377664, 1.4440024169161916, 0.8097910000942647, 1.408856000052765]","[6.970359040889889, 1.3543465421535075, 2.509340250166133, 1.6533978341612965, 1.259263041894883, 3.393885707948357, 1.2697479999624193, 1.9753325839992613, 6.2196223749779165, 2.718225250020623, 1.7921325420029461, 1.6860957089811563, 2.26864904188551, 4.776968624908477, 2.3852483751252294, 2.142058749916032, 3.492729000048712, 1.53641829197295, 1.352111625019461, 4.1938554579392076, 3.0355830418411642, 2.7700720001012087, 1.0352754998020828, 1.444004459073767, 0.8097929160576314, 1.4088582501281053]",,964143,001,2023-10-27_12h00.37.384,tutorial7_intentional_binding,2022.2.4,None
0.7,1000,exp,2,3,27,11,165.6817564580124,166.66571087483317,166.66571087483317,166.67080045794137,space,1.1915551251731813,168.5702794585998,169.03167174989358,169.03167174989358,169.03167174989358,1,28,"[6.970356540987268, 1.3543444590177387, 2.5093380000907928, 1.6533958341460675, 1.2592608330305666, 3.3938830827828497, 1.2697460828348994, 1.975330375134945, 6.219619625015184, 2.718223250005394, 1.7921304169576615, 1.68609350011684, 2.2686470421031117, 4.776966624893248, 2.385246125049889, 2.1420566660817713, 3.492726792115718, 1.5364163341000676, 1.352109625004232, 4.193853541044518, 3.0355805419385433, 2.7700699171982706, 1.0352732909377664, 1.4440024169161916, 0.8097910000942647, 1.408856000052765, 1.9361261250451207, 2.3883316670544446]","[6.970359040889889, 1.3543465421535075, 2.509340250166133, 1.6533978341612965, 1.259263041894883, 3.393885707948357, 1.2697479999624193, 1.9753325839992613, 6.2196223749779165, 2.718225250020623, 1.7921325420029461, 1.6860957089811563, 2.26864904188551, 4.776968624908477, 2.3852483751252294, 2.142058749916032, 3.492729000048712, 1.53641829197295, 1.352111625019461, 4.1938554579392076, 3.0355830418411642, 2.7700720001012087, 1.0352754998020828, 1.444004459073767, 0.8097929160576314, 1.4088582501281053, 1.9361284170299768, 2.3883338749874383]",,964143,001,2023-10-27_12h00.37.384,tutorial7_intentional_binding,2022.2.4,None
0.7,1000,exp,2,5,29,8,177.36496916692704,178.3498527,178.3498527,178.36692920792848,space,0.46691149892285466,179.5209509586605,179.98053850000724,179.98053850000724,179.98053850000724,456,30,"[6.970356540987268, 1.3543444590177387, 2.5093380000907928, 1.6533958341460675, 1.2592608330305666, 3.3938830827828497, 1.2697460828348994, 1.975330375134945, 6.219619625015184, 2.718223250005394, 1.7921304169576615, 1.68609350011684, 2.2686470421031117, 4.776966624893248, 2.385246125049889, 2.1420566660817713, 3.492726792115718, 1.5364163341000676, 1.352109625004232, 4.193853541044518, 3.0355805419385433, 2.7700699171982706, 1.0352732909377664, 1.4440024169161916, 0.8097910000942647, 1.408856000052765, 1.9361261250451207, 2.3883316670544446, 1.6533445841632783, 1.220898959087208]","[6.970359040889889, 1.3543465421535075, 2.509340250166133, 1.6533978341612965, 1.259263041894883, 3.393885707948357, 1.2697479999624193, 1.9753325839992613, 6.2196223749779165, 2.718225250020623, 1.7921325420029461, 1.6860957089811563, 2.26864904188551, 4.776968624908477, 2.3852483751252294, 2.142058749916032, 3.492729000048712, 1.53641829197295, 1.352111625019461, 4.1938554579392076, 3.0355830418411642, 2.7700720001012087, 1.0352754998020828, 1.444004459073767, 0.8097929160576314, 1.4088582501281053, 1.9361284170299768, 2.3883338749874383, 1.6533465420361608, 1.220900959102437]",,964143,001,2023-10-27_12h00.37.384,tutorial7_intentional_binding,2022.2.4,None
0.4,1000,exp,2,6,30,4,181.19862899999134,182.18267829203978,182.18267829203978,182.19045937503688,space,2.5180875002406538,185.12351016659912,185.5847212499939,185.5847212499939,185.5847212499939,87,31,"[6.970356540987268, 1.3543444590177387, 2.5093380000907928, 1.6533958341460675, 1.2592608330305666, 3.3938830827828497, 1.2697460828348994, 1.975330375134945, 6.219619625015184, 2.718223250005394, 1.7921304169576615, 1.68609350011684, 2.2686470421031117, 4.776966624893248, 2.385246125049889, 2.1420566660817713, 3.492726792115718, 1.5364163341000676, 1.352109625004232, 4.193853541044518, 3.0355805419385433, 2.7700699171982706, 1.0352732909377664, 1.4440024169161916, 0.8097910000942647, 1.408856000052765, 1.9361261250451207, 2.3883316670544446, 1.6533445841632783, 1.220898959087208, 1.768879208015278]","[6.970359040889889, 1.3543465421535075, 2.509340250166133, 1.6533978341612965, 1.259263041894883, 3.393885707948357, 1.2697479999624193, 1.9753325839992613, 6.2196223749779165, 2.718225250020623, 1.7921325420029461, 1.6860957089811563, 2.26864904188551, 4.776968624908477, 2.3852483751252294, 2.142058749916032, 3.492729000048712, 1.53641829197295, 1.352111625019461, 4.1938554579392076, 3.0355830418411642, 2.7700720001012087, 1.0352754998020828, 1.444004459073767, 0.8097929160576314, 1.4088582501281053, 1.9361284170299768, 2.3883338749874383, 1.6533465420361608, 1.220900959102437, 1.7688813752029091]",,964143,001,2023-10-27_12h00.37.384,tutorial7_intentional_binding,2022.2.4,None
0.1,1000,exp,2,7,31,3,187.34922054200433,188.33353554201312,188.33353554201312,188.34097441704944,space,1.220785625046119,189.66656324948806,190.12758066691458,190.12758066691458,190.12758066691458,178,32,"[6.970356540987268, 1.3543444590177387, 2.5093380000907928, 1.6533958341460675, 1.2592608330305666, 3.3938830827828497, 1.2697460828348994, 1.975330375134945, 6.219619625015184, 2.718223250005394, 1.7921304169576615, 1.68609350011684, 2.2686470421031117, 4.776966624893248, 2.385246125049889, 2.1420566660817713, 3.492726792115718, 1.5364163341000676, 1.352109625004232, 4.193853541044518, 3.0355805419385433, 2.7700699171982706, 1.0352732909377664, 1.4440024169161916, 0.8097910000942647, 1.408856000052765, 1.9361261250451207, 2.3883316670544446, 1.6533445841632783, 1.220898959087208, 1.768879208015278, 2.32682116702199]","[6.970359040889889, 1.3543465421535075, 2.509340250166133, 1.6533978341612965, 1.259263041894883, 3.393885707948357, 1.2697479999624193, 1.9753325839992613, 6.2196223749779165, 2.718225250020623, 1.7921325420029461, 1.6860957089811563, 2.26864904188551, 4.776968624908477, 2.3852483751252294, 2.142058749916032, 3.492729000048712, 1.53641829197295, 1.352111625019461, 4.1938554579392076, 3.0355830418411642, 2.7700720001012087, 1.0352754998020828, 1.444004459073767, 0.8097929160576314, 1.4088582501281053, 1.9361284170299768, 2.3883338749874383, 1.6533465420361608, 1.220900959102437, 1.7688813752029091, 2.3268232920672745]",190.12758066691458,964143,001,2023-10-27_12h00.37.384,tutorial7_intentional_binding,2022.2.4,None
0.1,1000,exp,2,8,32,6,192.4487927078735,193.43301233300008,193.43301233300008,193.44019649992697,space,1.5012038750573993,195.0568668335366,195.51587308291346,195.51587308291346,195.51587308291346,256,33,"[6.970356540987268, 1.3543444590177387, 2.5093380000907928, 1.6533958341460675, 1.2592608330305666, 3.3938830827828497, 1.2697460828348994, 1.975330375134945, 6.219619625015184, 2.718223250005394, 1.7921304169576615, 1.68609350011684, 2.2686470421031117, 4.776966624893248, 2.385246125049889, 2.1420566660817713, 3.492726792115718, 1.5364163341000676, 1.352109625004232, 4.193853541044518, 3.0355805419385433, 2.7700699171982706, 1.0352732909377664, 1.4440024169161916, 0.8097910000942647, 1.408856000052765, 1.9361261250451207, 2.3883316670544446, 1.6533445841632783, 1.220898959087208, 1.768879208015278, 2.32682116702199, 4.986290792003274]","[6.970359040889889, 1.3543465421535075, 2.509340250166133, 1.6533978341612965, 1.259263041894883, 3.393885707948357, 1.2697479999624193, 1.9753325839992613, 6.2196223749779165, 2.718225250020623, 1.7921325420029461, 1.6860957089811563, 2.26864904188551, 4.776968624908477, 2.3852483751252294, 2.142058749916032, 3.492729000048712, 1.53641829197295, 1.352111625019461, 4.1938554579392076, 3.0355830418411642, 2.7700720001012087, 1.0352754998020828, 1.444004459073767, 0.8097929160576314, 1.4088582501281053, 1.9361284170299768, 2.3883338749874383, 1.6533465420361608, 1.220900959102437, 1.7688813752029091, 2.3268232920672745, 4.986293042078614]",,964143,001,2023-10-27_12h00.37.384,tutorial7_intentional_binding,2022.2.4,None
0.1,1000,exp,2,9,33,9,200.49894104199484,201.48358170804568,201.48358170804568,201.49015783285722,space,1.2604242081288248,202.84978620853897,203.31120041687973,203.31120041687973,203.31120041687973,983,34,"[6.970356540987268, 1.3543444590177387, 2.5093380000907928, 1.6533958341460675, 1.2592608330305666, 3.3938830827828497, 1.2697460828348994, 1.975330375134945, 6.219619625015184, 2.718223250005394, 1.7921304169576615, 1.68609350011684, 2.2686470421031117, 4.776966624893248, 2.385246125049889, 2.1420566660817713, 3.492726792115718, 1.5364163341000676, 1.352109625004232, 4.193853541044518, 3.0355805419385433, 2.7700699171982706, 1.0352732909377664, 1.4440024169161916, 0.8097910000942647, 1.408856000052765, 1.9361261250451207, 2.3883316670544446, 1.6533445841632783, 1.220898959087208, 1.768879208015278, 2.32682116702199, 4.986290792003274, 2.5090072921011597]","[6.970359040889889, 1.3543465421535075, 2.509340250166133, 1.6533978341612965, 1.259263041894883, 3.393885707948357, 1.2697479999624193, 1.9753325839992613, 6.2196223749779165, 2.718225250020623, 1.7921325420029461, 1.6860957089811563, 2.26864904188551, 4.776968624908477, 2.3852483751252294, 2.142058749916032, 3.492729000048712, 1.53641829197295, 1.352111625019461, 4.1938554579392076, 3.0355830418411642, 2.7700720001012087, 1.0352754998020828, 1.444004459073767, 0.8097929160576314, 1.4088582501281053, 1.9361284170299768, 2.3883338749874383, 1.6533465420361608, 1.220900959102437, 1.7688813752029091, 2.3268232920672745, 4.986293042078614, 2.5090093340259045]",,964143,001,2023-10-27_12h00.37.384,tutorial7_intentional_binding,2022.2.4,None
0.7,1000,exp,2,10,34,5,205.8161230420228,206.80018808296882,206.80018808296882,206.8071289169602,space,5.684166208142415,213.19050733355496,213.65071891690604,213.65071891690604,213.65071891690604,876,35,"[6.970356540987268, 1.3543444590177387, 2.5093380000907928, 1.6533958341460675, 1.2592608330305666, 3.3938830827828497, 1.2697460828348994, 1.975330375134945, 6.219619625015184, 2.718223250005394, 1.7921304169576615, 1.68609350011684, 2.2686470421031117, 4.776966624893248, 2.385246125049889, 2.1420566660817713, 3.492726792115718, 1.5364163341000676, 1.352109625004232, 4.193853541044518, 3.0355805419385433, 2.7700699171982706, 1.0352732909377664, 1.4440024169161916, 0.8097910000942647, 1.408856000052765, 1.9361261250451207, 2.3883316670544446, 1.6533445841632783, 1.220898959087208, 1.768879208015278, 2.32682116702199, 4.986290792003274, 2.5090072921011597, 1.9016743749380112]","[6.970359040889889, 1.3543465421535075, 2.509340250166133, 1.6533978341612965, 1.259263041894883, 3.393885707948357, 1.2697479999624193, 1.9753325839992613, 6.2196223749779165, 2.718225250020623, 1.7921325420029461, 1.6860957089811563, 2.26864904188551, 4.776968624908477, 2.3852483751252294, 2.142058749916032, 3.492729000048712, 1.53641829197295, 1.352111625019461, 4.1938554579392076, 3.0355830418411642, 2.7700720001012087, 1.0352754998020828, 1.444004459073767, 0.8097929160576314, 1.4088582501281053, 1.9361284170299768, 2.3883338749874383, 1.6533465420361608, 1.220900959102437, 1.7688813752029091, 2.3268232920672745, 4.986293042078614, 2.5090093340259045, 1.9016764999832958]",,964143,001,2023-10-27_12h00.37.384,tutorial7_intentional_binding,2022.2.4,None
0.7,1000,exp,3,0,36,11,229.8993326248601,230.89140724996105,230.89140724996105,230.89140724996105,space,2.031063666101545,233.63371570856933,234.09507304197177,234.09507304197177,234.09507304197177,712,37,"[6.970356540987268, 1.3543444590177387, 2.5093380000907928, 1.6533958341460675, 1.2592608330305666, 3.3938830827828497, 1.2697460828348994, 1.975330375134945, 6.219619625015184, 2.718223250005394, 1.7921304169576615, 1.68609350011684, 2.2686470421031117, 4.776966624893248, 2.385246125049889, 2.1420566660817713, 3.492726792115718, 1.5364163341000676, 1.352109625004232, 4.193853541044518, 3.0355805419385433, 2.7700699171982706, 1.0352732909377664, 1.4440024169161916, 0.8097910000942647, 1.408856000052765, 1.9361261250451207, 2.3883316670544446, 1.6533445841632783, 1.220898959087208, 1.768879208015278, 2.32682116702199, 4.986290792003274, 2.5090072921011597, 1.9016743749380112, 1.3538112910464406, 1.1274041659198701]","[6.970359040889889, 1.3543465421535075, 2.509340250166133, 1.6533978341612965, 1.259263041894883, 3.393885707948357, 1.2697479999624193, 1.9753325839992613, 6.2196223749779165, 2.718225250020623, 1.7921325420029461, 1.6860957089811563, 2.26864904188551, 4.776968624908477, 2.3852483751252294, 2.142058749916032, 3.492729000048712, 1.53641829197295, 1.352111625019461, 4.1938554579392076, 3.0355830418411642, 2.7700720001012087, 1.0352754998020828, 1.444004459073767, 0.8097929160576314, 1.4088582501281053, 1.9361284170299768, 2.3883338749874383, 1.6533465420361608, 1.220900959102437, 1.7688813752029091, 2.3268232920672745, 4.986293042078614, 2.5090093340259045, 1.9016764999832958, 1.3538136661518365, 1.1274061659350991]",,964143,001,2023-10-27_12h00.37.384,tutorial7_intentional_binding,2022.2.4,None
0.1,1000,exp,3,1,37,3,235.21667037485167,236.20793000003323,236.20793000003323,236.20793000003323,space,0.5428872909396887,236.85756170849007,237.31712274998426,237.31712274998426,237.31712274998426,482,38,"[6.970356540987268, 1.3543444590177387, 2.5093380000907928, 1.6533958341460675, 1.2592608330305666, 3.3938830827828497, 1.2697460828348994, 1.975330375134945, 6.219619625015184, 2.718223250005394, 1.7921304169576615, 1.68609350011684, 2.2686470421031117, 4.776966624893248, 2.385246125049889, 2.1420566660817713, 3.492726792115718, 1.5364163341000676, 1.352109625004232, 4.193853541044518, 3.0355805419385433, 2.7700699171982706, 1.0352732909377664, 1.4440024169161916, 0.8097910000942647, 1.408856000052765, 1.9361261250451207, 2.3883316670544446, 1.6533445841632783, 1.220898959087208, 1.768879208015278, 2.32682116702199, 4.986290792003274, 2.5090072921011597, 1.9016743749380112, 1.3538112910464406, 1.1274041659198701, 1.6695095840841532]","[6.970359040889889, 1.3543465421535075, 2.509340250166133, 1.6533978341612965, 1.259263041894883, 3.393885707948357, 1.2697479999624193, 1.9753325839992613, 6.2196223749779165, 2.718225250020623, 1.7921325420029461, 1.6860957089811563, 2.26864904188551, 4.776968624908477, 2.3852483751252294, 2.142058749916032, 3.492729000048712, 1.53641829197295, 1.352111625019461, 4.1938554579392076, 3.0355830418411642, 2.7700720001012087, 1.0352754998020828, 1.444004459073767, 0.8097929160576314, 1.4088582501281053, 1.9361284170299768, 2.3883338749874383, 1.6533465420361608, 1.220900959102437, 1.7688813752029091, 2.3268232920672745, 4.986293042078614, 2.5090093340259045, 1.9016764999832958, 1.3538136661518365, 1.1274061659350991, 1.669511792017147]",,964143,001,2023-10-27_12h00.37.384,tutorial7_intentional_binding,2022.2.4,None
0.1,1000,exp,3,2,38,9,238.9827940419782,239.9670963329263,239.9670963329263,239.9745890418999,space,2.0409009172581136,242.11717999965575,242.5781470418442,242.5781470418442,242.5781470418442,519,39,"[6.970356540987268, 1.3543444590177387, 2.5093380000907928, 1.6533958341460675, 1.2592608330305666, 3.3938830827828497, 1.2697460828348994, 1.975330375134945, 6.219619625015184, 2.718223250005394, 1.7921304169576615, 1.68609350011684, 2.2686470421031117, 4.776966624893248, 2.385246125049889, 2.1420566660817713, 3.492726792115718, 1.5364163341000676, 1.352109625004232, 4.193853541044518, 3.0355805419385433, 2.7700699171982706, 1.0352732909377664, 1.4440024169161916, 0.8097910000942647, 1.408856000052765, 1.9361261250451207, 2.3883316670544446, 1.6533445841632783, 1.220898959087208, 1.768879208015278, 2.32682116702199, 4.986290792003274, 2.5090072921011597, 1.9016743749380112, 1.3538112910464406, 1.1274041659198701, 1.6695095840841532, 2.676444916985929]","[6.970359040889889, 1.3543465421535075, 2.509340250166133, 1.6533978341612965, 1.259263041894883, 3.393885707948357, 1.2697479999624193, 1.9753325839992613, 6.2196223749779165, 2.718225250020623, 1.7921325420029461, 1.6860957089811563, 2.26864904188551, 4.776968624908477, 2.3852483751252294, 2.142058749916032, 3.492729000048712, 1.53641829197295, 1.352111625019461, 4.1938554579392076, 3.0355830418411642, 2.7700720001012087, 1.0352754998020828, 1.444004459073767, 0.8097929160576314, 1.4088582501281053, 1.9361284170299768, 2.3883338749874383, 1.6533465420361608, 1.220900959102437, 1.7688813752029091, 2.3268232920672745, 4.986293042078614, 2.5090093340259045, 1.9016764999832958, 1.3538136661518365, 1.1274061659350991, 1.669511792017147, 2.676446917001158]",,964143,001,2023-10-27_12h00.37.384,tutorial7_intentional_binding,2022.2.4,None
0.4,1000,exp,3,3,39,7,245.2495302078314,246.2336317920126,246.2336317920126,246.24111449997872,space,1.0137841252144426,247.65758174966712,248.1184013329912,248.1184013329912,248.1184013329912,90,40,"[6.970356540987268, 1.3543444590177387, 2.5093380000907928, 1.6533958341460675, 1.2592608330305666, 3.3938830827828497, 1.2697460828348994, 1.975330375134945, 6.219619625015184, 2.718223250005394, 1.7921304169576615, 1.68609350011684, 2.2686470421031117, 4.776966624893248, 2.385246125049889, 2.1420566660817713, 3.492726792115718, 1.5364163341000676, 1.352109625004232, 4.193853541044518, 3.0355805419385433, 2.7700699171982706, 1.0352732909377664, 1.4440024169161916, 0.8097910000942647, 1.408856000052765, 1.9361261250451207, 2.3883316670544446, 1.6533445841632783, 1.220898959087208, 1.768879208015278, 2.32682116702199, 4.986290792003274, 2.5090072921011597, 1.9016743749380112, 1.3538112910464406, 1.1274041659198701, 1.6695095840841532, 2.676444916985929, 4.68514549988322]","[6.970359040889889, 1.3543465421535075, 2.509340250166133, 1.6533978341612965, 1.259263041894883, 3.393885707948357, 1.2697479999624193, 1.9753325839992613, 6.2196223749779165, 2.718225250020623, 1.7921325420029461, 1.6860957089811563, 2.26864904188551, 4.776968624908477, 2.3852483751252294, 2.142058749916032, 3.492729000048712, 1.53641829197295, 1.352111625019461, 4.1938554579392076, 3.0355830418411642, 2.7700720001012087, 1.0352754998020828, 1.444004459073767, 0.8097929160576314, 1.4088582501281053, 1.9361284170299768, 2.3883338749874383, 1.6533465420361608, 1.220900959102437, 1.7688813752029091, 2.3268232920672745, 4.986293042078614, 2.5090093340259045, 1.9016764999832958, 1.3538136661518365, 1.1274061659350991, 1.669511792017147, 2.676446917001158, 4.685147667070851]",,964143,001,2023-10-27_12h00.37.384,tutorial7_intentional_binding,2022.2.4,None
0.1,1000,exp,3,4,40,6,252.79966066684574,253.7842807918787,253.7842807918787,253.79101312486455,space,1.6722728330641985,255.56729804171871,256.0279901670292,256.0279901670292,256.0279901670292,420,41,"[6.970356540987268, 1.3543444590177387, 2.5093380000907928, 1.6533958341460675, 1.2592608330305666, 3.3938830827828497, 1.2697460828348994, 1.975330375134945, 6.219619625015184, 2.718223250005394, 1.7921304169576615, 1.68609350011684, 2.2686470421031117, 4.776966624893248, 2.385246125049889, 2.1420566660817713, 3.492726792115718, 1.5364163341000676, 1.352109625004232, 4.193853541044518, 3.0355805419385433, 2.7700699171982706, 1.0352732909377664, 1.4440024169161916, 0.8097910000942647, 1.408856000052765, 1.9361261250451207, 2.3883316670544446, 1.6533445841632783, 1.220898959087208, 1.768879208015278, 2.32682116702199, 4.986290792003274, 2.5090072921011597, 1.9016743749380112, 1.3538112910464406, 1.1274041659198701, 1.6695095840841532, 2.676444916985929, 4.68514549988322, 4.3268315410241485]","[6.970359040889889, 1.3543465421535075, 2.509340250166133, 1.6533978341612965, 1.259263041894883, 3.393885707948357, 1.2697479999624193, 1.9753325839992613, 6.2196223749779165, 2.718225250020623, 1.7921325420029461, 1.6860957089811563, 2.26864904188551, 4.776968624908477, 2.3852483751252294, 2.142058749916032, 3.492729000048712, 1.53641829197295, 1.352111625019461, 4.1938554579392076, 3.0355830418411642, 2.7700720001012087, 1.0352754998020828, 1.444004459073767, 0.8097929160576314, 1.4088582501281053, 1.9361284170299768, 2.3883338749874383, 1.6533465420361608, 1.220900959102437, 1.7688813752029091, 2.3268232920672745, 4.986293042078614, 2.5090093340259045, 1.9016764999832958, 1.3538136661518365, 1.1274061659350991, 1.669511792017147, 2.676446917001158, 4.685147667070851, 4.326833416009322]",,964143,001,2023-10-27_12h00.37.384,tutorial7_intentional_binding,2022.2.4,None
0.4,1000,exp,3,5,41,10,260.3495269168634,261.33925812505186,261.33925812505186,261.33925812505186,space,1.2511516250669956,263.0012505835077,263.46158137498423,263.46158137498423,263.46158137498423,666,42,"[6.970356540987268, 1.3543444590177387, 2.5093380000907928, 1.6533958341460675, 1.2592608330305666, 3.3938830827828497, 1.2697460828348994, 1.975330375134945, 6.219619625015184, 2.718223250005394, 1.7921304169576615, 1.68609350011684, 2.2686470421031117, 4.776966624893248, 2.385246125049889, 2.1420566660817713, 3.492726792115718, 1.5364163341000676, 1.352109625004232, 4.193853541044518, 3.0355805419385433, 2.7700699171982706, 1.0352732909377664, 1.4440024169161916, 0.8097910000942647, 1.408856000052765, 1.9361261250451207, 2.3883316670544446, 1.6533445841632783, 1.220898959087208, 1.768879208015278, 2.32682116702199, 4.986290792003274, 2.5090072921011597, 1.9016743749380112, 1.3538112910464406, 1.1274041659198701, 1.6695095840841532, 2.676444916985929, 4.68514549988322, 4.3268315410241485, 3.6256046250928193]","[6.970359040889889, 1.3543465421535075, 2.509340250166133, 1.6533978341612965, 1.259263041894883, 3.393885707948357, 1.2697479999624193, 1.9753325839992613, 6.2196223749779165, 2.718225250020623, 1.7921325420029461, 1.6860957089811563, 2.26864904188551, 4.776968624908477, 2.3852483751252294, 2.142058749916032, 3.492729000048712, 1.53641829197295, 1.352111625019461, 4.1938554579392076, 3.0355830418411642, 2.7700720001012087, 1.0352754998020828, 1.444004459073767, 0.8097929160576314, 1.4088582501281053, 1.9361284170299768, 2.3883338749874383, 1.6533465420361608, 1.220900959102437, 1.7688813752029091, 2.3268232920672745, 4.986293042078614, 2.5090093340259045, 1.9016764999832958, 1.3538136661518365, 1.1274061659350991, 1.669511792017147, 2.676446917001158, 4.685147667070851, 4.326833416009322, 3.6256067079957575]",,964143,001,2023-10-27_12h00.37.384,tutorial7_intentional_binding,2022.2.4,None
0.7,1000,exp,3,6,42,8,267.0837006669026,268.06769733293913,268.06769733293913,268.0748514579609,space,1.0846361250150949,269.8574438745311,270.3182462078985,270.3182462078985,270.3182462078985,437,43,"[6.970356540987268, 1.3543444590177387, 2.5093380000907928, 1.6533958341460675, 1.2592608330305666, 3.3938830827828497, 1.2697460828348994, 1.975330375134945, 6.219619625015184, 2.718223250005394, 1.7921304169576615, 1.68609350011684, 2.2686470421031117, 4.776966624893248, 2.385246125049889, 2.1420566660817713, 3.492726792115718, 1.5364163341000676, 1.352109625004232, 4.193853541044518, 3.0355805419385433, 2.7700699171982706, 1.0352732909377664, 1.4440024169161916, 0.8097910000942647, 1.408856000052765, 1.9361261250451207, 2.3883316670544446, 1.6533445841632783, 1.220898959087208, 1.768879208015278, 2.32682116702199, 4.986290792003274, 2.5090072921011597, 1.9016743749380112, 1.3538112910464406, 1.1274041659198701, 1.6695095840841532, 2.676444916985929, 4.68514549988322, 4.3268315410241485, 3.6256046250928193, 2.369606167078018]","[6.970359040889889, 1.3543465421535075, 2.509340250166133, 1.6533978341612965, 1.259263041894883, 3.393885707948357, 1.2697479999624193, 1.9753325839992613, 6.2196223749779165, 2.718225250020623, 1.7921325420029461, 1.6860957089811563, 2.26864904188551, 4.776968624908477, 2.3852483751252294, 2.142058749916032, 3.492729000048712, 1.53641829197295, 1.352111625019461, 4.1938554579392076, 3.0355830418411642, 2.7700720001012087, 1.0352754998020828, 1.444004459073767, 0.8097929160576314, 1.4088582501281053, 1.9361284170299768, 2.3883338749874383, 1.6533465420361608, 1.220900959102437, 1.7688813752029091, 2.3268232920672745, 4.986293042078614, 2.5090093340259045, 1.9016764999832958, 1.3538136661518365, 1.1274061659350991, 1.669511792017147, 2.676446917001158, 4.685147667070851, 4.326833416009322, 3.6256067079957575, 2.3696081249509007]",,964143,001,2023-10-27_12h00.37.384,tutorial7_intentional_binding,2022.2.4,None
0.7,1000,exp,3,8,44,5,278.71735375002027,279.70132849994116,279.70132849994116,279.7084724,space,0.7593527501448989,281.18509945861683,281.6463555418886,281.6463555418886,281.6463555418886,541,45,"[6.970356540987268, 1.3543444590177387, 2.5093380000907928, 1.6533958341460675, 1.2592608330305666, 3.3938830827828497, 1.2697460828348994, 1.975330375134945, 6.219619625015184, 2.718223250005394, 1.7921304169576615, 1.68609350011684, 2.2686470421031117, 4.776966624893248, 2.385246125049889, 2.1420566660817713, 3.492726792115718, 1.5364163341000676, 1.352109625004232, 4.193853541044518, 3.0355805419385433, 2.7700699171982706, 1.0352732909377664, 1.4440024169161916, 0.8097910000942647, 1.408856000052765, 1.9361261250451207, 2.3883316670544446, 1.6533445841632783, 1.220898959087208, 1.768879208015278, 2.32682116702199, 4.986290792003274, 2.5090072921011597, 1.9016743749380112, 1.3538112910464406, 1.1274041659198701, 1.6695095840841532, 2.676444916985929, 4.68514549988322, 4.3268315410241485, 3.6256046250928193, 2.369606167078018, 2.3711063750088215, 2.092486707959324]","[6.970359040889889, 1.3543465421535075, 2.509340250166133, 1.6533978341612965, 1.259263041894883, 3.393885707948357, 1.2697479999624193, 1.9753325839992613, 6.2196223749779165, 2.718225250020623, 1.7921325420029461, 1.6860957089811563, 2.26864904188551, 4.776968624908477, 2.3852483751252294, 2.142058749916032, 3.492729000048712, 1.53641829197295, 1.352111625019461, 4.1938554579392076, 3.0355830418411642, 2.7700720001012087, 1.0352754998020828, 1.444004459073767, 0.8097929160576314, 1.4088582501281053, 1.9361284170299768, 2.3883338749874383, 1.6533465420361608, 1.220900959102437, 1.7688813752029091, 2.3268232920672745, 4.986293042078614, 2.5090093340259045, 1.9016764999832958, 1.3538136661518365, 1.1274061659350991, 1.669511792017147, 2.676446917001158, 4.685147667070851, 4.326833416009322, 3.6256067079957575, 2.3696081249509007, 2.37110837479122, 2.0924890420865268]",281.6463555418886,964143,001,2023-10-27_12h00.37.384,tutorial7_intentional_binding,2022.2.4,None
0.4,1000,exp,3,10,46,4,289.91687062499113,290.90168320783414,290.90168320783414,290.90876583289355,space,2.404183999169618,293.70819645870165,294.1694962079637,294.1694962079637,294.1694962079637,612,47,"[6.970356540987268, 1.3543444590177387, 2.5093380000907928, 1.6533958341460675, 1.2592608330305666, 3.3938830827828497, 1.2697460828348994, 1.975330375134945, 6.219619625015184, 2.718223250005394, 1.7921304169576615, 1.68609350011684, 2.2686470421031117, 4.776966624893248, 2.385246125049889, 2.1420566660817713, 3.492726792115718, 1.5364163341000676, 1.352109625004232, 4.193853541044518, 3.0355805419385433, 2.7700699171982706, 1.0352732909377664, 1.4440024169161916, 0.8097910000942647, 1.408856000052765, 1.9361261250451207, 2.3883316670544446, 1.6533445841632783, 1.220898959087208, 1.768879208015278, 2.32682116702199, 4.986290792003274, 2.5090072921011597, 1.9016743749380112, 1.3538112910464406, 1.1274041659198701, 1.6695095840841532, 2.676444916985929, 4.68514549988322, 4.3268315410241485, 3.6256046250928193, 2.369606167078018, 2.3711063750088215, 2.092486707959324, 2.4581167500000447, 2.835631625028327]","[6.970359040889889, 1.3543465421535075, 2.509340250166133, 1.6533978341612965, 1.259263041894883, 3.393885707948357, 1.2697479999624193, 1.9753325839992613, 6.2196223749779165, 2.718225250020623, 1.7921325420029461, 1.6860957089811563, 2.26864904188551, 4.776968624908477, 2.3852483751252294, 2.142058749916032, 3.492729000048712, 1.53641829197295, 1.352111625019461, 4.1938554579392076, 3.0355830418411642, 2.7700720001012087, 1.0352754998020828, 1.444004459073767, 0.8097929160576314, 1.4088582501281053, 1.9361284170299768, 2.3883338749874383, 1.6533465420361608, 1.220900959102437, 1.7688813752029091, 2.3268232920672745, 4.986293042078614, 2.5090093340259045, 1.9016764999832958, 1.3538136661518365, 1.1274061659350991, 1.669511792017147, 2.676446917001158, 4.685147667070851, 4.326833416009322, 3.6256067079957575, 2.3696081249509007, 2.37110837479122, 2.0924890420865268, 2.4581187500152737, 2.835633791051805]",,964143,001,2023-10-27_12h00.37.384,tutorial7_intentional_binding,2022.2.4,None
0.7,1000,exp,4,0,48,5,301.8003757079132,302.78497070795856,302.78497070795856,302.79198649991304,space,1.3631262080743909,304.8582689585785,305.31908658286557,305.31908658286557,305.31908658286557,825,49,"[6.970356540987268, 1.3543444590177387, 2.5093380000907928, 1.6533958341460675, 1.2592608330305666, 3.3938830827828497, 1.2697460828348994, 1.975330375134945, 6.219619625015184, 2.718223250005394, 1.7921304169576615, 1.68609350011684, 2.2686470421031117, 4.776966624893248, 2.385246125049889, 2.1420566660817713, 3.492726792115718, 1.5364163341000676, 1.352109625004232, 4.193853541044518, 3.0355805419385433, 2.7700699171982706, 1.0352732909377664, 1.4440024169161916, 0.8097910000942647, 1.408856000052765, 1.9361261250451207, 2.3883316670544446, 1.6533445841632783, 1.220898959087208, 1.768879208015278, 2.32682116702199, 4.986290792003274, 2.5090072921011597, 1.9016743749380112, 1.3538112910464406, 1.1274041659198701, 1.6695095840841532, 2.676444916985929, 4.68514549988322, 4.3268315410241485, 3.6256046250928193, 2.369606167078018, 2.3711063750088215, 2.092486707959324, 2.4581167500000447, 2.835631625028327, 2.3753365417942405, 2.253189415903762]","[6.970359040889889, 1.3543465421535075, 2.509340250166133, 1.6533978341612965, 1.259263041894883, 3.393885707948357, 1.2697479999624193, 1.9753325839992613, 6.2196223749779165, 2.718225250020623, 1.7921325420029461, 1.6860957089811563, 2.26864904188551, 4.776968624908477, 2.3852483751252294, 2.142058749916032, 3.492729000048712, 1.53641829197295, 1.352111625019461, 4.1938554579392076, 3.0355830418411642, 2.7700720001012087, 1.0352754998020828, 1.444004459073767, 0.8097929160576314, 1.4088582501281053, 1.9361284170299768, 2.3883338749874383, 1.6533465420361608, 1.220900959102437, 1.7688813752029091, 2.3268232920672745, 4.986293042078614, 2.5090093340259045, 1.9016764999832958, 1.3538136661518365, 1.1274061659350991, 1.669511792017147, 2.676446917001158, 4.685147667070851, 4.326833416009322, 3.6256067079957575, 2.3696081249509007, 2.37110837479122, 2.0924890420865268, 2.4581187500152737, 2.835633791051805, 2.375338666839525, 2.2531914999708533]",,964143,001,2023-10-27_12h00.37.384,tutorial7_intentional_binding,2022.2.4,None
0.1,1000,exp,4,1,49,9,307.5670176248532,308.5515067919623,308.5515067919623,308.55991970794275,space,3.6346222921274602,312.3015898746128,312.7619113328401,312.7619113328401,312.7619113328401,627,50,"[6.970356540987268, 1.3543444590177387, 2.5093380000907928, 1.6533958341460675, 1.2592608330305666, 3.3938830827828497, 1.2697460828348994, 1.975330375134945, 6.219619625015184, 2.718223250005394, 1.7921304169576615, 1.68609350011684, 2.2686470421031117, 4.776966624893248, 2.385246125049889, 2.1420566660817713, 3.492726792115718, 1.5364163341000676, 1.352109625004232, 4.193853541044518, 3.0355805419385433, 2.7700699171982706, 1.0352732909377664, 1.4440024169161916, 0.8097910000942647, 1.408856000052765, 1.9361261250451207, 2.3883316670544446, 1.6533445841632783, 1.220898959087208, 1.768879208015278, 2.32682116702199, 4.986290792003274, 2.5090072921011597, 1.9016743749380112, 1.3538112910464406, 1.1274041659198701, 1.6695095840841532, 2.676444916985929, 4.68514549988322, 4.3268315410241485, 3.6256046250928193, 2.369606167078018, 2.3711063750088215, 2.092486707959324, 2.4581167500000447, 2.835631625028327, 2.3753365417942405, 2.253189415903762, 3.2087124579120427]","[6.970359040889889, 1.3543465421535075, 2.509340250166133, 1.6533978341612965, 1.259263041894883, 3.393885707948357, 1.2697479999624193, 1.9753325839992613, 6.2196223749779165, 2.718225250020623, 1.7921325420029461, 1.6860957089811563, 2.26864904188551, 4.776968624908477, 2.3852483751252294, 2.142058749916032, 3.492729000048712, 1.53641829197295, 1.352111625019461, 4.1938554579392076, 3.0355830418411642, 2.7700720001012087, 1.0352754998020828, 1.444004459073767, 0.8097929160576314, 1.4088582501281053, 1.9361284170299768, 2.3883338749874383, 1.6533465420361608, 1.220900959102437, 1.7688813752029091, 2.3268232920672745, 4.986293042078614, 2.5090093340259045, 1.9016764999832958, 1.3538136661518365, 1.1274061659350991, 1.669511792017147, 2.676446917001158, 4.685147667070851, 4.326833416009322, 3.6256067079957575, 2.3696081249509007, 2.37110837479122, 2.0924890420865268, 2.4581187500152737, 2.835633791051805, 2.375338666839525, 2.2531914999708533, 3.2087143750395626]",,964143,001,2023-10-27_12h00.37.384,tutorial7_intentional_binding,2022.2.4,None
0.7,1000,exp,4,2,50,8,315.9678582078777,316.9518278329633,316.9518278329633,316.9599199,space,1.6845640412066132,319.3593934165003,319.82010058290325,319.82010058290325,319.82010058290325,88,51,"[6.970356540987268, 1.3543444590177387, 2.5093380000907928, 1.6533958341460675, 1.2592608330305666, 3.3938830827828497, 1.2697460828348994, 1.975330375134945, 6.219619625015184, 2.718223250005394, 1.7921304169576615, 1.68609350011684, 2.2686470421031117, 4.776966624893248, 2.385246125049889, 2.1420566660817713, 3.492726792115718, 1.5364163341000676, 1.352109625004232, 4.193853541044518, 3.0355805419385433, 2.7700699171982706, 1.0352732909377664, 1.4440024169161916, 0.8097910000942647, 1.408856000052765, 1.9361261250451207, 2.3883316670544446, 1.6533445841632783, 1.220898959087208, 1.768879208015278, 2.32682116702199, 4.986290792003274, 2.5090072921011597, 1.9016743749380112, 1.3538112910464406, 1.1274041659198701, 1.6695095840841532, 2.676444916985929, 4.68514549988322, 4.3268315410241485, 3.6256046250928193, 2.369606167078018, 2.3711063750088215, 2.092486707959324, 2.4581167500000447, 2.835631625028327, 2.3753365417942405, 2.253189415903762, 3.2087124579120427, 4.602138415910304]","[6.970359040889889, 1.3543465421535075, 2.509340250166133, 1.6533978341612965, 1.259263041894883, 3.393885707948357, 1.2697479999624193, 1.9753325839992613, 6.2196223749779165, 2.718225250020623, 1.7921325420029461, 1.6860957089811563, 2.26864904188551, 4.776968624908477, 2.3852483751252294, 2.142058749916032, 3.492729000048712, 1.53641829197295, 1.352111625019461, 4.1938554579392076, 3.0355830418411642, 2.7700720001012087, 1.0352754998020828, 1.444004459073767, 0.8097929160576314, 1.4088582501281053, 1.9361284170299768, 2.3883338749874383, 1.6533465420361608, 1.220900959102437, 1.7688813752029091, 2.3268232920672745, 4.986293042078614, 2.5090093340259045, 1.9016764999832958, 1.3538136661518365, 1.1274061659350991, 1.669511792017147, 2.676446917001158, 4.685147667070851, 4.326833416009322, 3.6256067079957575, 2.3696081249509007, 2.37110837479122, 2.0924890420865268, 2.4581187500152737, 2.835633791051805, 2.375338666839525, 2.2531914999708533, 3.2087143750395626, 4.602140374947339]",319.82010058290325,964143,001,2023-10-27_12h00.37.384,tutorial7_intentional_binding,2022.2.4,None
0.4,1000,exp,4,3,51,7,324.41740804188885,325.40206254203804,325.40206254203804,325.4088952918537,space,0.8840524989645928,326.7020963335565,327.16387520800345,327.16387520800345,327.16387520800345,65,52,"[6.970356540987268, 1.3543444590177387, 2.5093380000907928, 1.6533958341460675, 1.2592608330305666, 3.3938830827828497, 1.2697460828348994, 1.975330375134945, 6.219619625015184, 2.718223250005394, 1.7921304169576615, 1.68609350011684, 2.2686470421031117, 4.776966624893248, 2.385246125049889, 2.1420566660817713, 3.492726792115718, 1.5364163341000676, 1.352109625004232, 4.193853541044518, 3.0355805419385433, 2.7700699171982706, 1.0352732909377664, 1.4440024169161916, 0.8097910000942647, 1.408856000052765, 1.9361261250451207, 2.3883316670544446, 1.6533445841632783, 1.220898959087208, 1.768879208015278, 2.32682116702199, 4.986290792003274, 2.5090072921011597, 1.9016743749380112, 1.3538112910464406, 1.1274041659198701, 1.6695095840841532, 2.676444916985929, 4.68514549988322, 4.3268315410241485, 3.6256046250928193, 2.369606167078018, 2.3711063750088215, 2.092486707959324, 2.4581167500000447, 2.835631625028327, 2.3753365417942405, 2.253189415903762, 3.2087124579120427, 4.602138415910304, 7.193126166937873]","[6.970359040889889, 1.3543465421535075, 2.509340250166133, 1.6533978341612965, 1.259263041894883, 3.393885707948357, 1.2697479999624193, 1.9753325839992613, 6.2196223749779165, 2.718225250020623, 1.7921325420029461, 1.6860957089811563, 2.26864904188551, 4.776968624908477, 2.3852483751252294, 2.142058749916032, 3.492729000048712, 1.53641829197295, 1.352111625019461, 4.1938554579392076, 3.0355830418411642, 2.7700720001012087, 1.0352754998020828, 1.444004459073767, 0.8097929160576314, 1.4088582501281053, 1.9361284170299768, 2.3883338749874383, 1.6533465420361608, 1.220900959102437, 1.7688813752029091, 2.3268232920672745, 4.986293042078614, 2.5090093340259045, 1.9016764999832958, 1.3538136661518365, 1.1274061659350991, 1.669511792017147, 2.676446917001158, 4.685147667070851, 4.326833416009322, 3.6256067079957575, 2.3696081249509007, 2.37110837479122, 2.0924890420865268, 2.4581187500152737, 2.835633791051805, 2.375338666839525, 2.2531914999708533, 3.2087143750395626, 4.602140374947339, 7.193128125043586]",327.16387520800345,964143,001,2023-10-27_12h00.37.384,tutorial7_intentional_binding,2022.2.4,None
0.7,1000,exp,4,4,52,11,334.35058120801114,335.3418019998353,335.3418019998353,335.3418019998353,space,53.80471158330329,389.8525844165745,390.31397108291276,390.31397108291276,390.31397108291276,238,53,"[6.970356540987268, 1.3543444590177387, 2.5093380000907928, 1.6533958341460675, 1.2592608330305666, 3.3938830827828497, 1.2697460828348994, 1.975330375134945, 6.219619625015184, 2.718223250005394, 1.7921304169576615, 1.68609350011684, 2.2686470421031117, 4.776966624893248, 2.385246125049889, 2.1420566660817713, 3.492726792115718, 1.5364163341000676, 1.352109625004232, 4.193853541044518, 3.0355805419385433, 2.7700699171982706, 1.0352732909377664, 1.4440024169161916, 0.8097910000942647, 1.408856000052765, 1.9361261250451207, 2.3883316670544446, 1.6533445841632783, 1.220898959087208, 1.768879208015278, 2.32682116702199, 4.986290792003274, 2.5090072921011597, 1.9016743749380112, 1.3538112910464406, 1.1274041659198701, 1.6695095840841532, 2.676444916985929, 4.68514549988322, 4.3268315410241485, 3.6256046250928193, 2.369606167078018, 2.3711063750088215, 2.092486707959324, 2.4581167500000447, 2.835631625028327, 2.3753365417942405, 2.253189415903762, 3.2087124579120427, 4.602138415910304, 7.193126166937873, 2.076932624913752]","[6.970359040889889, 1.3543465421535075, 2.509340250166133, 1.6533978341612965, 1.259263041894883, 3.393885707948357, 1.2697479999624193, 1.9753325839992613, 6.2196223749779165, 2.718225250020623, 1.7921325420029461, 1.6860957089811563, 2.26864904188551, 4.776968624908477, 2.3852483751252294, 2.142058749916032, 3.492729000048712, 1.53641829197295, 1.352111625019461, 4.1938554579392076, 3.0355830418411642, 2.7700720001012087, 1.0352754998020828, 1.444004459073767, 0.8097929160576314, 1.4088582501281053, 1.9361284170299768, 2.3883338749874383, 1.6533465420361608, 1.220900959102437, 1.7688813752029091, 2.3268232920672745, 4.986293042078614, 2.5090093340259045, 1.9016764999832958, 1.3538136661518365, 1.1274061659350991, 1.669511792017147, 2.676446917001158, 4.685147667070851, 4.326833416009322, 3.6256067079957575, 2.3696081249509007, 2.37110837479122, 2.0924890420865268, 2.4581187500152737, 2.835633791051805, 2.375338666839525, 2.2531914999708533, 3.2087143750395626, 4.602140374947339, 7.193128125043586, 2.076934624928981]",,964143,001,2023-10-27_12h00.37.384,tutorial7_intentional_binding,2022.2.4,None
0.1,1000,exp,4,5,53,3,392.3851468330249,393.37669904204085,393.37669904204085,393.37669904204085,space,3.647335333,397.1361034166223,397.5967624168843,397.5967624168843,397.5967624168843,700,54,"[6.970356540987268, 1.3543444590177387, 2.5093380000907928, 1.6533958341460675, 1.2592608330305666, 3.3938830827828497, 1.2697460828348994, 1.975330375134945, 6.219619625015184, 2.718223250005394, 1.7921304169576615, 1.68609350011684, 2.2686470421031117, 4.776966624893248, 2.385246125049889, 2.1420566660817713, 3.492726792115718, 1.5364163341000676, 1.352109625004232, 4.193853541044518, 3.0355805419385433, 2.7700699171982706, 1.0352732909377664, 1.4440024169161916, 0.8097910000942647, 1.408856000052765, 1.9361261250451207, 2.3883316670544446, 1.6533445841632783, 1.220898959087208, 1.768879208015278, 2.32682116702199, 4.986290792003274, 2.5090072921011597, 1.9016743749380112, 1.3538112910464406, 1.1274041659198701, 1.6695095840841532, 2.676444916985929, 4.68514549988322, 4.3268315410241485, 3.6256046250928193, 2.369606167078018, 2.3711063750088215, 2.092486707959324, 2.4581167500000447, 2.835631625028327, 2.3753365417942405, 2.253189415903762, 3.2087124579120427, 4.602138415910304, 7.193126166937873, 2.076932624913752, 4.259096167050302]","[6.970359040889889, 1.3543465421535075, 2.509340250166133, 1.6533978341612965, 1.259263041894883, 3.393885707948357, 1.2697479999624193, 1.9753325839992613, 6.2196223749779165, 2.718225250020623, 1.7921325420029461, 1.6860957089811563, 2.26864904188551, 4.776968624908477, 2.3852483751252294, 2.142058749916032, 3.492729000048712, 1.53641829197295, 1.352111625019461, 4.1938554579392076, 3.0355830418411642, 2.7700720001012087, 1.0352754998020828, 1.444004459073767, 0.8097929160576314, 1.4088582501281053, 1.9361284170299768, 2.3883338749874383, 1.6533465420361608, 1.220900959102437, 1.7688813752029091, 2.3268232920672745, 4.986293042078614, 2.5090093340259045, 1.9016764999832958, 1.3538136661518365, 1.1274061659350991, 1.669511792017147, 2.676446917001158, 4.685147667070851, 4.326833416009322, 3.6256067079957575, 2.3696081249509007, 2.37110837479122, 2.0924890420865268, 2.4581187500152737, 2.835633791051805, 2.375338666839525, 2.2531914999708533, 3.2087143750395626, 4.602140374947339, 7.193128125043586, 2.076934624928981, 4.259098292095587]",,964143,001,2023-10-27_12h00.37.384,tutorial7_intentional_binding,2022.2.4,None
0.1,1000,exp,4,6,54,6,401.85179512482136,402.8363986250479,402.8363986250479,402.84357087500393,space,1.0535684581845999,403.9930563336859,404.45482841692865,404.45482841692865,404.45482841692865,171,55,"[6.970356540987268, 1.3543444590177387, 2.5093380000907928, 1.6533958341460675, 1.2592608330305666, 3.3938830827828497, 1.2697460828348994, 1.975330375134945, 6.219619625015184, 2.718223250005394, 1.7921304169576615, 1.68609350011684, 2.2686470421031117, 4.776966624893248, 2.385246125049889, 2.1420566660817713, 3.492726792115718, 1.5364163341000676, 1.352109625004232, 4.193853541044518, 3.0355805419385433, 2.7700699171982706, 1.0352732909377664, 1.4440024169161916, 0.8097910000942647, 1.408856000052765, 1.9361261250451207, 2.3883316670544446, 1.6533445841632783, 1.220898959087208, 1.768879208015278, 2.32682116702199, 4.986290792003274, 2.5090072921011597, 1.9016743749380112, 1.3538112910464406, 1.1274041659198701, 1.6695095840841532, 2.676444916985929, 4.68514549988322, 4.3268315410241485, 3.6256046250928193, 2.369606167078018, 2.3711063750088215, 2.092486707959324, 2.4581167500000447, 2.835631625028327, 2.3753365417942405, 2.253189415903762, 3.2087124579120427, 4.602138415910304, 7.193126166937873, 2.076932624913752, 4.259096167050302, 6.085593000054359]","[6.970359040889889, 1.3543465421535075, 2.509340250166133, 1.6533978341612965, 1.259263041894883, 3.393885707948357, 1.2697479999624193, 1.9753325839992613, 6.2196223749779165, 2.718225250020623, 1.7921325420029461, 1.6860957089811563, 2.26864904188551, 4.776968624908477, 2.3852483751252294, 2.142058749916032, 3.492729000048712, 1.53641829197295, 1.352111625019461, 4.1938554579392076, 3.0355830418411642, 2.7700720001012087, 1.0352754998020828, 1.444004459073767, 0.8097929160576314, 1.4088582501281053, 1.9361284170299768, 2.3883338749874383, 1.6533465420361608, 1.220900959102437, 1.7688813752029091, 2.3268232920672745, 4.986293042078614, 2.5090093340259045, 1.9016764999832958, 1.3538136661518365, 1.1274061659350991, 1.669511792017147, 2.676446917001158, 4.685147667070851, 4.326833416009322, 3.6256067079957575, 2.3696081249509007, 2.37110837479122, 2.0924890420865268, 2.4581187500152737, 2.835633791051805, 2.375338666839525, 2.2531914999708533, 3.2087143750395626, 4.602140374947339, 7.193128125043586, 2.076934624928981, 4.259098292095587, 6.085594957927242]",,964143,001,2023-10-27_12h00.37.384,tutorial7_intentional_binding,2022.2.4,None
0.4,1000,exp,4,8,56,10,416.2520612499211,417.2437064170372,417.2437064170372,417.2437064170372,space,1.5156528330408037,419.17026291654133,419.6306726250332,419.6306726250332,419.6306726250332,447,57,"[6.970356540987268, 1.3543444590177387, 2.5093380000907928, 1.6533958341460675, 1.2592608330305666, 3.3938830827828497, 1.2697460828348994, 1.975330375134945, 6.219619625015184, 2.718223250005394, 1.7921304169576615, 1.68609350011684, 2.2686470421031117, 4.776966624893248, 2.385246125049889, 2.1420566660817713, 3.492726792115718, 1.5364163341000676, 1.352109625004232, 4.193853541044518, 3.0355805419385433, 2.7700699171982706, 1.0352732909377664, 1.4440024169161916, 0.8097910000942647, 1.408856000052765, 1.9361261250451207, 2.3883316670544446, 1.6533445841632783, 1.220898959087208, 1.768879208015278, 2.32682116702199, 4.986290792003274, 2.5090072921011597, 1.9016743749380112, 1.3538112910464406, 1.1274041659198701, 1.6695095840841532, 2.676444916985929, 4.68514549988322, 4.3268315410241485, 3.6256046250928193, 2.369606167078018, 2.3711063750088215, 2.092486707959324, 2.4581167500000447, 2.835631625028327, 2.3753365417942405, 2.253189415903762, 3.2087124579120427, 4.602138415910304, 7.193126166937873, 2.076932624913752, 4.259096167050302, 6.085593000054359, 2.2771143750287592, 7.075642457930371]","[6.970359040889889, 1.3543465421535075, 2.509340250166133, 1.6533978341612965, 1.259263041894883, 3.393885707948357, 1.2697479999624193, 1.9753325839992613, 6.2196223749779165, 2.718225250020623, 1.7921325420029461, 1.6860957089811563, 2.26864904188551, 4.776968624908477, 2.3852483751252294, 2.142058749916032, 3.492729000048712, 1.53641829197295, 1.352111625019461, 4.1938554579392076, 3.0355830418411642, 2.7700720001012087, 1.0352754998020828, 1.444004459073767, 0.8097929160576314, 1.4088582501281053, 1.9361284170299768, 2.3883338749874383, 1.6533465420361608, 1.220900959102437, 1.7688813752029091, 2.3268232920672745, 4.986293042078614, 2.5090093340259045, 1.9016764999832958, 1.3538136661518365, 1.1274061659350991, 1.669511792017147, 2.676446917001158, 4.685147667070851, 4.326833416009322, 3.6256067079957575, 2.3696081249509007, 2.37110837479122, 2.0924890420865268, 2.4581187500152737, 2.835633791051805, 2.375338666839525, 2.2531914999708533, 3.2087143750395626, 4.602140374947339, 7.193128125043586, 2.076934624928981, 4.259098292095587, 6.085594957927242, 2.2771168330218643, 7.075644499855116]",419.6306726250332,964143,001,2023-10-27_12h00.37.384,tutorial7_intentional_binding,2022.2.4,None
0.4,1000,exp,4,11,59,4,441.8523488328792,442.84428679198027,442.84428679198027,442.84428679198027,space,0.20993245812132955,443.46024062467427,443.9207700418774,443.9207700418774,443.9207700418774,553,60,"[6.970356540987268, 1.3543444590177387, 2.5093380000907928, 1.6533958341460675, 1.2592608330305666, 3.3938830827828497, 1.2697460828348994, 1.975330375134945, 6.219619625015184, 2.718223250005394, 1.7921304169576615, 1.68609350011684, 2.2686470421031117, 4.776966624893248, 2.385246125049889, 2.1420566660817713, 3.492726792115718, 1.5364163341000676, 1.352109625004232, 4.193853541044518, 3.0355805419385433, 2.7700699171982706, 1.0352732909377664, 1.4440024169161916, 0.8097910000942647, 1.408856000052765, 1.9361261250451207, 2.3883316670544446, 1.6533445841632783, 1.220898959087208, 1.768879208015278, 2.32682116702199, 4.986290792003274, 2.5090072921011597, 1.9016743749380112, 1.3538112910464406, 1.1274041659198701, 1.6695095840841532, 2.676444916985929, 4.68514549988322, 4.3268315410241485, 3.6256046250928193, 2.369606167078018, 2.3711063750088215, 2.092486707959324, 2.4581167500000447, 2.835631625028327, 2.3753365417942405, 2.253189415903762, 3.2087124579120427, 4.602138415910304, 7.193126166937873, 2.076932624913752, 4.259096167050302, 6.085593000054359, 2.2771143750287592, 7.075642457930371, 6.326513999840245, 2.377782041905448, 2.252558209002018]","[6.970359040889889, 1.3543465421535075, 2.509340250166133, 1.6533978341612965, 1.259263041894883, 3.393885707948357, 1.2697479999624193, 1.9753325839992613, 6.2196223749779165, 2.718225250020623, 1.7921325420029461, 1.6860957089811563, 2.26864904188551, 4.776968624908477, 2.3852483751252294, 2.142058749916032, 3.492729000048712, 1.53641829197295, 1.352111625019461, 4.1938554579392076, 3.0355830418411642, 2.7700720001012087, 1.0352754998020828, 1.444004459073767, 0.8097929160576314, 1.4088582501281053, 1.9361284170299768, 2.3883338749874383, 1.6533465420361608, 1.220900959102437, 1.7688813752029091, 2.3268232920672745, 4.986293042078614, 2.5090093340259045, 1.9016764999832958, 1.3538136661518365, 1.1274061659350991, 1.669511792017147, 2.676446917001158, 4.685147667070851, 4.326833416009322, 3.6256067079957575, 2.3696081249509007, 2.37110837479122, 2.0924890420865268, 2.4581187500152737, 2.835633791051805, 2.375338666839525, 2.2531914999708533, 3.2087143750395626, 4.602140374947339, 7.193128125043586, 2.076934624928981, 4.259098292095587, 6.085594957927242, 2.2771168330218643, 7.075644499855116, 6.326517124893144, 2.3777847080491483, 2.2525609170552343]",,964143,001,2023-10-27_12h00.37.384,tutorial7_intentional_binding,2022.2.4,None
0.4,1000,exp,5,0,60,7,446.1691669,447.1538308330346,447.1538308330346,447.16048766695894,space,0.4558818330988288,448.0106310416634,448.47270375001244,448.47270375001244,448.47270375001244,711,61,"[6.970356540987268, 1.3543444590177387, 2.5093380000907928, 1.6533958341460675, 1.2592608330305666, 3.3938830827828497, 1.2697460828348994, 1.975330375134945, 6.219619625015184, 2.718223250005394, 1.7921304169576615, 1.68609350011684, 2.2686470421031117, 4.776966624893248, 2.385246125049889, 2.1420566660817713, 3.492726792115718, 1.5364163341000676, 1.352109625004232, 4.193853541044518, 3.0355805419385433, 2.7700699171982706, 1.0352732909377664, 1.4440024169161916, 0.8097910000942647, 1.408856000052765, 1.9361261250451207, 2.3883316670544446, 1.6533445841632783, 1.220898959087208, 1.768879208015278, 2.32682116702199, 4.986290792003274, 2.5090072921011597, 1.9016743749380112, 1.3538112910464406, 1.1274041659198701, 1.6695095840841532, 2.676444916985929, 4.68514549988322, 4.3268315410241485, 3.6256046250928193, 2.369606167078018, 2.3711063750088215, 2.092486707959324, 2.4581167500000447, 2.835631625028327, 2.3753365417942405, 2.253189415903762, 3.2087124579120427, 4.602138415910304, 7.193126166937873, 2.076932624913752, 4.259096167050302, 6.085593000054359, 2.2771143750287592, 7.075642457930371, 6.326513999840245, 2.377782041905448, 2.252558209002018, 3.335023291874677]","[6.970359040889889, 1.3543465421535075, 2.509340250166133, 1.6533978341612965, 1.259263041894883, 3.393885707948357, 1.2697479999624193, 1.9753325839992613, 6.2196223749779165, 2.718225250020623, 1.7921325420029461, 1.6860957089811563, 2.26864904188551, 4.776968624908477, 2.3852483751252294, 2.142058749916032, 3.492729000048712, 1.53641829197295, 1.352111625019461, 4.1938554579392076, 3.0355830418411642, 2.7700720001012087, 1.0352754998020828, 1.444004459073767, 0.8097929160576314, 1.4088582501281053, 1.9361284170299768, 2.3883338749874383, 1.6533465420361608, 1.220900959102437, 1.7688813752029091, 2.3268232920672745, 4.986293042078614, 2.5090093340259045, 1.9016764999832958, 1.3538136661518365, 1.1274061659350991, 1.669511792017147, 2.676446917001158, 4.685147667070851, 4.326833416009322, 3.6256067079957575, 2.3696081249509007, 2.37110837479122, 2.0924890420865268, 2.4581187500152737, 2.835633791051805, 2.375338666839525, 2.2531914999708533, 3.2087143750395626, 4.602140374947339, 7.193128125043586, 2.076934624928981, 4.259098292095587, 6.085594957927242, 2.2771168330218643, 7.075644499855116, 6.326517124893144, 2.3777847080491483, 2.2525609170552343, 3.3350253750104457]",,964143,001,2023-10-27_12h00.37.384,tutorial7_intentional_binding,2022.2.4,None
0.1,1000,exp,5,1,61,3,451.80254604201764,452.7870636668522,452.7870636668522,452.79423720785417,space,3.1746458751149476,456.0772901245548,456.53818937484175,456.53818937484175,456.53818937484175,700,62,"[6.970356540987268, 1.3543444590177387, 2.5093380000907928, 1.6533958341460675, 1.2592608330305666, 3.3938830827828497, 1.2697460828348994, 1.975330375134945, 6.219619625015184, 2.718223250005394, 1.7921304169576615, 1.68609350011684, 2.2686470421031117, 4.776966624893248, 2.385246125049889, 2.1420566660817713, 3.492726792115718, 1.5364163341000676, 1.352109625004232, 4.193853541044518, 3.0355805419385433, 2.7700699171982706, 1.0352732909377664, 1.4440024169161916, 0.8097910000942647, 1.408856000052765, 1.9361261250451207, 2.3883316670544446, 1.6533445841632783, 1.220898959087208, 1.768879208015278, 2.32682116702199, 4.986290792003274, 2.5090072921011597, 1.9016743749380112, 1.3538112910464406, 1.1274041659198701, 1.6695095840841532, 2.676444916985929, 4.68514549988322, 4.3268315410241485, 3.6256046250928193, 2.369606167078018, 2.3711063750088215, 2.092486707959324, 2.4581167500000447, 2.835631625028327, 2.3753365417942405, 2.253189415903762, 3.2087124579120427, 4.602138415910304, 7.193126166937873, 2.076932624913752, 4.259096167050302, 6.085593000054359, 2.2771143750287592, 7.075642457930371, 6.326513999840245, 2.377782041905448, 2.252558209002018, 3.335023291874677, 5.419233832973987]","[6.970359040889889, 1.3543465421535075, 2.509340250166133, 1.6533978341612965, 1.259263041894883, 3.393885707948357, 1.2697479999624193, 1.9753325839992613, 6.2196223749779165, 2.718225250020623, 1.7921325420029461, 1.6860957089811563, 2.26864904188551, 4.776968624908477, 2.3852483751252294, 2.142058749916032, 3.492729000048712, 1.53641829197295, 1.352111625019461, 4.1938554579392076, 3.0355830418411642, 2.7700720001012087, 1.0352754998020828, 1.444004459073767, 0.8097929160576314, 1.4088582501281053, 1.9361284170299768, 2.3883338749874383, 1.6533465420361608, 1.220900959102437, 1.7688813752029091, 2.3268232920672745, 4.986293042078614, 2.5090093340259045, 1.9016764999832958, 1.3538136661518365, 1.1274061659350991, 1.669511792017147, 2.676446917001158, 4.685147667070851, 4.326833416009322, 3.6256067079957575, 2.3696081249509007, 2.37110837479122, 2.0924890420865268, 2.4581187500152737, 2.835633791051805, 2.375338666839525, 2.2531914999708533, 3.2087143750395626, 4.602140374947339, 7.193128125043586, 2.076934624928981, 4.259098292095587, 6.085594957927242, 2.2771168330218643, 7.075644499855116, 6.326517124893144, 2.3777847080491483, 2.2525609170552343, 3.3350253750104457, 5.419235792011023]",,964143,001,2023-10-27_12h00.37.384,tutorial7_intentional_binding,2022.2.4,None
0.7,1000,exp,5,3,63,8,466.46949087502435,467.45421233284287,467.45421233284287,467.4616536248941,space,1.056480416096747,469.2111060415084,469.67211870802566,469.67211870802566,469.67211870802566,200,64,"[6.970356540987268, 1.3543444590177387, 2.5093380000907928, 1.6533958341460675, 1.2592608330305666, 3.3938830827828497, 1.2697460828348994, 1.975330375134945, 6.219619625015184, 2.718223250005394, 1.7921304169576615, 1.68609350011684, 2.2686470421031117, 4.776966624893248, 2.385246125049889, 2.1420566660817713, 3.492726792115718, 1.5364163341000676, 1.352109625004232, 4.193853541044518, 3.0355805419385433, 2.7700699171982706, 1.0352732909377664, 1.4440024169161916, 0.8097910000942647, 1.408856000052765, 1.9361261250451207, 2.3883316670544446, 1.6533445841632783, 1.220898959087208, 1.768879208015278, 2.32682116702199, 4.986290792003274, 2.5090072921011597, 1.9016743749380112, 1.3538112910464406, 1.1274041659198701, 1.6695095840841532, 2.676444916985929, 4.68514549988322, 4.3268315410241485, 3.6256046250928193, 2.369606167078018, 2.3711063750088215, 2.092486707959324, 2.4581167500000447, 2.835631625028327, 2.3753365417942405, 2.253189415903762, 3.2087124579120427, 4.602138415910304, 7.193126166937873, 2.076932624913752, 4.259096167050302, 6.085593000054359, 2.2771143750287592, 7.075642457930371, 6.326513999840245, 2.377782041905448, 2.252558209002018, 3.335023291874677, 5.419233832973987, 2.3432649159803987, 1.95167245878838]","[6.970359040889889, 1.3543465421535075, 2.509340250166133, 1.6533978341612965, 1.259263041894883, 3.393885707948357, 1.2697479999624193, 1.9753325839992613, 6.2196223749779165, 2.718225250020623, 1.7921325420029461, 1.6860957089811563, 2.26864904188551, 4.776968624908477, 2.3852483751252294, 2.142058749916032, 3.492729000048712, 1.53641829197295, 1.352111625019461, 4.1938554579392076, 3.0355830418411642, 2.7700720001012087, 1.0352754998020828, 1.444004459073767, 0.8097929160576314, 1.4088582501281053, 1.9361284170299768, 2.3883338749874383, 1.6533465420361608, 1.220900959102437, 1.7688813752029091, 2.3268232920672745, 4.986293042078614, 2.5090093340259045, 1.9016764999832958, 1.3538136661518365, 1.1274061659350991, 1.669511792017147, 2.676446917001158, 4.685147667070851, 4.326833416009322, 3.6256067079957575, 2.3696081249509007, 2.37110837479122, 2.0924890420865268, 2.4581187500152737, 2.835633791051805, 2.375338666839525, 2.2531914999708533, 3.2087143750395626, 4.602140374947339, 7.193128125043586, 2.076934624928981, 4.259098292095587, 6.085594957927242, 2.2771168330218643, 7.075644499855116, 6.326517124893144, 2.3777847080491483, 2.2525609170552343, 3.3350253750104457, 5.419235792011023, 2.3432673329953104, 1.9516751249320805]",,964143,001,2023-10-27_12h00.37.384,tutorial7_intentional_binding,2022.2.4,None
0.4,1000,exp,5,4,64,10,471.61968170804903,472.60417304188013,472.60417304188013,472.6117133749649,space,2.550695499172434,475.5708364586501,476.0311184169259,476.0311184169259,476.0311184169259,648,65,"[6.970356540987268, 1.3543444590177387, 2.5093380000907928, 1.6533958341460675, 1.2592608330305666, 3.3938830827828497, 1.2697460828348994, 1.975330375134945, 6.219619625015184, 2.718223250005394, 1.7921304169576615, 1.68609350011684, 2.2686470421031117, 4.776966624893248, 2.385246125049889, 2.1420566660817713, 3.492726792115718, 1.5364163341000676, 1.352109625004232, 4.193853541044518, 3.0355805419385433, 2.7700699171982706, 1.0352732909377664, 1.4440024169161916, 0.8097910000942647, 1.408856000052765, 1.9361261250451207, 2.3883316670544446, 1.6533445841632783, 1.220898959087208, 1.768879208015278, 2.32682116702199, 4.986290792003274, 2.5090072921011597, 1.9016743749380112, 1.3538112910464406, 1.1274041659198701, 1.6695095840841532, 2.676444916985929, 4.68514549988322, 4.3268315410241485, 3.6256046250928193, 2.369606167078018, 2.3711063750088215, 2.092486707959324, 2.4581167500000447, 2.835631625028327, 2.3753365417942405, 2.253189415903762, 3.2087124579120427, 4.602138415910304, 7.193126166937873, 2.076932624913752, 4.259096167050302, 6.085593000054359, 2.2771143750287592, 7.075642457930371, 6.326513999840245, 2.377782041905448, 2.252558209002018, 3.335023291874677, 5.419233832973987, 2.3432649159803987, 1.95167245878838, 6.576813250081614]","[6.970359040889889, 1.3543465421535075, 2.509340250166133, 1.6533978341612965, 1.259263041894883, 3.393885707948357, 1.2697479999624193, 1.9753325839992613, 6.2196223749779165, 2.718225250020623, 1.7921325420029461, 1.6860957089811563, 2.26864904188551, 4.776968624908477, 2.3852483751252294, 2.142058749916032, 3.492729000048712, 1.53641829197295, 1.352111625019461, 4.1938554579392076, 3.0355830418411642, 2.7700720001012087, 1.0352754998020828, 1.444004459073767, 0.8097929160576314, 1.4088582501281053, 1.9361284170299768, 2.3883338749874383, 1.6533465420361608, 1.220900959102437, 1.7688813752029091, 2.3268232920672745, 4.986293042078614, 2.5090093340259045, 1.9016764999832958, 1.3538136661518365, 1.1274061659350991, 1.669511792017147, 2.676446917001158, 4.685147667070851, 4.326833416009322, 3.6256067079957575, 2.3696081249509007, 2.37110837479122, 2.0924890420865268, 2.4581187500152737, 2.835633791051805, 2.375338666839525, 2.2531914999708533, 3.2087143750395626, 4.602140374947339, 7.193128125043586, 2.076934624928981, 4.259098292095587, 6.085594957927242, 2.2771168330218643, 7.075644499855116, 6.326517124893144, 2.3777847080491483, 2.2525609170552343, 3.3350253750104457, 5.419235792011023, 2.3432673329953104, 1.9516751249320805, 6.576815333915874]",,964143,001,2023-10-27_12h00.37.384,tutorial7_intentional_binding,2022.2.4,None
0.1,1000,exp,5,5,65,9,482.60362800001167,483.58764795796014,483.58764795796014,483.59523166692816,space,1.2671030829660594,484.9608728336791,485.4219004579354,485.4219004579354,485.4219004579354,384,66,"[6.970356540987268, 1.3543444590177387, 2.5093380000907928, 1.6533958341460675, 1.2592608330305666, 3.3938830827828497, 1.2697460828348994, 1.975330375134945, 6.219619625015184, 2.718223250005394, 1.7921304169576615, 1.68609350011684, 2.2686470421031117, 4.776966624893248, 2.385246125049889, 2.1420566660817713, 3.492726792115718, 1.5364163341000676, 1.352109625004232, 4.193853541044518, 3.0355805419385433, 2.7700699171982706, 1.0352732909377664, 1.4440024169161916, 0.8097910000942647, 1.408856000052765, 1.9361261250451207, 2.3883316670544446, 1.6533445841632783, 1.220898959087208, 1.768879208015278, 2.32682116702199, 4.986290792003274, 2.5090072921011597, 1.9016743749380112, 1.3538112910464406, 1.1274041659198701, 1.6695095840841532, 2.676444916985929, 4.68514549988322, 4.3268315410241485, 3.6256046250928193, 2.369606167078018, 2.3711063750088215, 2.092486707959324, 2.4581167500000447, 2.835631625028327, 2.3753365417942405, 2.253189415903762, 3.2087124579120427, 4.602138415910304, 7.193126166937873, 2.076932624913752, 4.259096167050302, 6.085593000054359, 2.2771143750287592, 7.075642457930371, 6.326513999840245, 2.377782041905448, 2.252558209002018, 3.335023291874677, 5.419233832973987, 2.3432649159803987, 1.95167245878838, 6.576813250081614, 1.8355605418328196]","[6.970359040889889, 1.3543465421535075, 2.509340250166133, 1.6533978341612965, 1.259263041894883, 3.393885707948357, 1.2697479999624193, 1.9753325839992613, 6.2196223749779165, 2.718225250020623, 1.7921325420029461, 1.6860957089811563, 2.26864904188551, 4.776968624908477, 2.3852483751252294, 2.142058749916032, 3.492729000048712, 1.53641829197295, 1.352111625019461, 4.1938554579392076, 3.0355830418411642, 2.7700720001012087, 1.0352754998020828, 1.444004459073767, 0.8097929160576314, 1.4088582501281053, 1.9361284170299768, 2.3883338749874383, 1.6533465420361608, 1.220900959102437, 1.7688813752029091, 2.3268232920672745, 4.986293042078614, 2.5090093340259045, 1.9016764999832958, 1.3538136661518365, 1.1274061659350991, 1.669511792017147, 2.676446917001158, 4.685147667070851, 4.326833416009322, 3.6256067079957575, 2.3696081249509007, 2.37110837479122, 2.0924890420865268, 2.4581187500152737, 2.835633791051805, 2.375338666839525, 2.2531914999708533, 3.2087143750395626, 4.602140374947339, 7.193128125043586, 2.076934624928981, 4.259098292095587, 6.085594957927242, 2.2771168330218643, 7.075644499855116, 6.326517124893144, 2.3777847080491483, 2.2525609170552343, 3.3350253750104457, 5.419235792011023, 2.3432673329953104, 1.9516751249320805, 6.576815333915874, 1.8355624999385327]",,964143,001,2023-10-27_12h00.37.384,tutorial7_intentional_binding,2022.2.4,None
0.7,1000,exp,5,6,66,5,487.25307087483816,488.2376899998635,488.2376899998635,488.2451707080472,space,9.152580915950239,498.09519124968597,498.5562875419855,498.5562875419855,498.5562875419855,322,67,"[6.970356540987268, 1.3543444590177387, 2.5093380000907928, 1.6533958341460675, 1.2592608330305666, 3.3938830827828497, 1.2697460828348994, 1.975330375134945, 6.219619625015184, 2.718223250005394, 1.7921304169576615, 1.68609350011684, 2.2686470421031117, 4.776966624893248, 2.385246125049889, 2.1420566660817713, 3.492726792115718, 1.5364163341000676, 1.352109625004232, 4.193853541044518, 3.0355805419385433, 2.7700699171982706, 1.0352732909377664, 1.4440024169161916, 0.8097910000942647, 1.408856000052765, 1.9361261250451207, 2.3883316670544446, 1.6533445841632783, 1.220898959087208, 1.768879208015278, 2.32682116702199, 4.986290792003274, 2.5090072921011597, 1.9016743749380112, 1.3538112910464406, 1.1274041659198701, 1.6695095840841532, 2.676444916985929, 4.68514549988322, 4.3268315410241485, 3.6256046250928193, 2.369606167078018, 2.3711063750088215, 2.092486707959324, 2.4581167500000447, 2.835631625028327, 2.3753365417942405, 2.253189415903762, 3.2087124579120427, 4.602138415910304, 7.193126166937873, 2.076932624913752, 4.259096167050302, 6.085593000054359, 2.2771143750287592, 7.075642457930371, 6.326513999840245, 2.377782041905448, 2.252558209002018, 3.335023291874677, 5.419233832973987, 2.3432649159803987, 1.95167245878838, 6.576813250081614, 1.8355605418328196, 3.11879708385095]","[6.970359040889889, 1.3543465421535075, 2.509340250166133, 1.6533978341612965, 1.259263041894883, 3.393885707948357, 1.2697479999624193, 1.9753325839992613, 6.2196223749779165, 2.718225250020623, 1.7921325420029461, 1.6860957089811563, 2.26864904188551, 4.776968624908477, 2.3852483751252294, 2.142058749916032, 3.492729000048712, 1.53641829197295, 1.352111625019461, 4.1938554579392076, 3.0355830418411642, 2.7700720001012087, 1.0352754998020828, 1.444004459073767, 0.8097929160576314, 1.4088582501281053, 1.9361284170299768, 2.3883338749874383, 1.6533465420361608, 1.220900959102437, 1.7688813752029091, 2.3268232920672745, 4.986293042078614, 2.5090093340259045, 1.9016764999832958, 1.3538136661518365, 1.1274061659350991, 1.669511792017147, 2.676446917001158, 4.685147667070851, 4.326833416009322, 3.6256067079957575, 2.3696081249509007, 2.37110837479122, 2.0924890420865268, 2.4581187500152737, 2.835633791051805, 2.375338666839525, 2.2531914999708533, 3.2087143750395626, 4.602140374947339, 7.193128125043586, 2.076934624928981, 4.259098292095587, 6.085594957927242, 2.2771168330218643, 7.075644499855116, 6.326517124893144, 2.3777847080491483, 2.2525609170552343, 3.3350253750104457, 5.419235792011023, 2.3432673329953104, 1.9516751249320805, 6.576815333915874, 1.8355624999385327, 3.118799041956663]",,964143,001,2023-10-27_12h00.37.384,tutorial7_intentional_binding,2022.2.4,None
0.7,1000,exp,5,8,68,11,506.8033272079192,507.79577283305116,507.79577283305116,507.79577283305116,space,4.196723583,512.7047047916024,513.163777,513.163777,513.163777,100,69,"[6.970356540987268, 1.3543444590177387, 2.5093380000907928, 1.6533958341460675, 1.2592608330305666, 3.3938830827828497, 1.2697460828348994, 1.975330375134945, 6.219619625015184, 2.718223250005394, 1.7921304169576615, 1.68609350011684, 2.2686470421031117, 4.776966624893248, 2.385246125049889, 2.1420566660817713, 3.492726792115718, 1.5364163341000676, 1.352109625004232, 4.193853541044518, 3.0355805419385433, 2.7700699171982706, 1.0352732909377664, 1.4440024169161916, 0.8097910000942647, 1.408856000052765, 1.9361261250451207, 2.3883316670544446, 1.6533445841632783, 1.220898959087208, 1.768879208015278, 2.32682116702199, 4.986290792003274, 2.5090072921011597, 1.9016743749380112, 1.3538112910464406, 1.1274041659198701, 1.6695095840841532, 2.676444916985929, 4.68514549988322, 4.3268315410241485, 3.6256046250928193, 2.369606167078018, 2.3711063750088215, 2.092486707959324, 2.4581167500000447, 2.835631625028327, 2.3753365417942405, 2.253189415903762, 3.2087124579120427, 4.602138415910304, 7.193126166937873, 2.076932624913752, 4.259096167050302, 6.085593000054359, 2.2771143750287592, 7.075642457930371, 6.326513999840245, 2.377782041905448, 2.252558209002018, 3.335023291874677, 5.419233832973987, 2.3432649159803987, 1.95167245878838, 6.576813250081614, 1.8355605418328196, 3.11879708385095, 1.3687186669558287, 1.7763294170144945]","[6.970359040889889, 1.3543465421535075, 2.509340250166133, 1.6533978341612965, 1.259263041894883, 3.393885707948357, 1.2697479999624193, 1.9753325839992613, 6.2196223749779165, 2.718225250020623, 1.7921325420029461, 1.6860957089811563, 2.26864904188551, 4.776968624908477, 2.3852483751252294, 2.142058749916032, 3.492729000048712, 1.53641829197295, 1.352111625019461, 4.1938554579392076, 3.0355830418411642, 2.7700720001012087, 1.0352754998020828, 1.444004459073767, 0.8097929160576314, 1.4088582501281053, 1.9361284170299768, 2.3883338749874383, 1.6533465420361608, 1.220900959102437, 1.7688813752029091, 2.3268232920672745, 4.986293042078614, 2.5090093340259045, 1.9016764999832958, 1.3538136661518365, 1.1274061659350991, 1.669511792017147, 2.676446917001158, 4.685147667070851, 4.326833416009322, 3.6256067079957575, 2.3696081249509007, 2.37110837479122, 2.0924890420865268, 2.4581187500152737, 2.835633791051805, 2.375338666839525, 2.2531914999708533, 3.2087143750395626, 4.602140374947339, 7.193128125043586, 2.076934624928981, 4.259098292095587, 6.085594957927242, 2.2771168330218643, 7.075644499855116, 6.326517124893144, 2.3777847080491483, 2.2525609170552343, 3.3350253750104457, 5.419235792011023, 2.3432673329953104, 1.9516751249320805, 6.576815333915874, 1.8355624999385327, 3.118799041956663, 1.3687212918885052, 1.7763315842021257]",513.163777,964143,001,2023-10-27_12h00.37.384,tutorial7_intentional_binding,2022.2.4,None
0.4,1000,exp,5,9,69,4,514.9367718750145,515.9214323,515.9214323,515.9288970418274,space,4.968210916034877,521.3047466665196,521.7651027499232,521.7651027499232,521.7651027499232,232,70,"[6.970356540987268, 1.3543444590177387, 2.5093380000907928, 1.6533958341460675, 1.2592608330305666, 3.3938830827828497, 1.2697460828348994, 1.975330375134945, 6.219619625015184, 2.718223250005394, 1.7921304169576615, 1.68609350011684, 2.2686470421031117, 4.776966624893248, 2.385246125049889, 2.1420566660817713, 3.492726792115718, 1.5364163341000676, 1.352109625004232, 4.193853541044518, 3.0355805419385433, 2.7700699171982706, 1.0352732909377664, 1.4440024169161916, 0.8097910000942647, 1.408856000052765, 1.9361261250451207, 2.3883316670544446, 1.6533445841632783, 1.220898959087208, 1.768879208015278, 2.32682116702199, 4.986290792003274, 2.5090072921011597, 1.9016743749380112, 1.3538112910464406, 1.1274041659198701, 1.6695095840841532, 2.676444916985929, 4.68514549988322, 4.3268315410241485, 3.6256046250928193, 2.369606167078018, 2.3711063750088215, 2.092486707959324, 2.4581167500000447, 2.835631625028327, 2.3753365417942405, 2.253189415903762, 3.2087124579120427, 4.602138415910304, 7.193126166937873, 2.076932624913752, 4.259096167050302, 6.085593000054359, 2.2771143750287592, 7.075642457930371, 6.326513999840245, 2.377782041905448, 2.252558209002018, 3.335023291874677, 5.419233832973987, 2.3432649159803987, 1.95167245878838, 6.576813250081614, 1.8355605418328196, 3.11879708385095, 1.3687186669558287, 1.7763294170144945, 2.1094313331414014]","[6.970359040889889, 1.3543465421535075, 2.509340250166133, 1.6533978341612965, 1.259263041894883, 3.393885707948357, 1.2697479999624193, 1.9753325839992613, 6.2196223749779165, 2.718225250020623, 1.7921325420029461, 1.6860957089811563, 2.26864904188551, 4.776968624908477, 2.3852483751252294, 2.142058749916032, 3.492729000048712, 1.53641829197295, 1.352111625019461, 4.1938554579392076, 3.0355830418411642, 2.7700720001012087, 1.0352754998020828, 1.444004459073767, 0.8097929160576314, 1.4088582501281053, 1.9361284170299768, 2.3883338749874383, 1.6533465420361608, 1.220900959102437, 1.7688813752029091, 2.3268232920672745, 4.986293042078614, 2.5090093340259045, 1.9016764999832958, 1.3538136661518365, 1.1274061659350991, 1.669511792017147, 2.676446917001158, 4.685147667070851, 4.326833416009322, 3.6256067079957575, 2.3696081249509007, 2.37110837479122, 2.0924890420865268, 2.4581187500152737, 2.835633791051805, 2.375338666839525, 2.2531914999708533, 3.2087143750395626, 4.602140374947339, 7.193128125043586, 2.076934624928981, 4.259098292095587, 6.085594957927242, 2.2771168330218643, 7.075644499855116, 6.326517124893144, 2.3777847080491483, 2.2525609170552343, 3.3350253750104457, 5.419235792011023, 2.3432673329953104, 1.9516751249320805, 6.576815333915874, 1.8355624999385327, 3.118799041956663, 1.3687212918885052, 1.7763315842021257, 2.109433541074395]",,964143,001,2023-10-27_12h00.37.384,tutorial7_intentional_binding,2022.2.4,None
0.1,1000,exp,5,11,71,6,532.7370269999374,533.7215644998942,533.7215644998942,533.7284231670201,space,7.066886248998344,540.8950593337106,541.3547210828401,541.3547210828401,541.3547210828401,88,72,"[6.970356540987268, 1.3543444590177387, 2.5093380000907928, 1.6533958341460675, 1.2592608330305666, 3.3938830827828497, 1.2697460828348994, 1.975330375134945, 6.219619625015184, 2.718223250005394, 1.7921304169576615, 1.68609350011684, 2.2686470421031117, 4.776966624893248, 2.385246125049889, 2.1420566660817713, 3.492726792115718, 1.5364163341000676, 1.352109625004232, 4.193853541044518, 3.0355805419385433, 2.7700699171982706, 1.0352732909377664, 1.4440024169161916, 0.8097910000942647, 1.408856000052765, 1.9361261250451207, 2.3883316670544446, 1.6533445841632783, 1.220898959087208, 1.768879208015278, 2.32682116702199, 4.986290792003274, 2.5090072921011597, 1.9016743749380112, 1.3538112910464406, 1.1274041659198701, 1.6695095840841532, 2.676444916985929, 4.68514549988322, 4.3268315410241485, 3.6256046250928193, 2.369606167078018, 2.3711063750088215, 2.092486707959324, 2.4581167500000447, 2.835631625028327, 2.3753365417942405, 2.253189415903762, 3.2087124579120427, 4.602138415910304, 7.193126166937873, 2.076932624913752, 4.259096167050302, 6.085593000054359, 2.2771143750287592, 7.075642457930371, 6.326513999840245, 2.377782041905448, 2.252558209002018, 3.335023291874677, 5.419233832973987, 2.3432649159803987, 1.95167245878838, 6.576813250081614, 1.8355605418328196, 3.11879708385095, 1.3687186669558287, 1.7763294170144945, 2.1094313331414014, 4.835302792023867, 3.7360114590264857]","[6.970359040889889, 1.3543465421535075, 2.509340250166133, 1.6533978341612965, 1.259263041894883, 3.393885707948357, 1.2697479999624193, 1.9753325839992613, 6.2196223749779165, 2.718225250020623, 1.7921325420029461, 1.6860957089811563, 2.26864904188551, 4.776968624908477, 2.3852483751252294, 2.142058749916032, 3.492729000048712, 1.53641829197295, 1.352111625019461, 4.1938554579392076, 3.0355830418411642, 2.7700720001012087, 1.0352754998020828, 1.444004459073767, 0.8097929160576314, 1.4088582501281053, 1.9361284170299768, 2.3883338749874383, 1.6533465420361608, 1.220900959102437, 1.7688813752029091, 2.3268232920672745, 4.986293042078614, 2.5090093340259045, 1.9016764999832958, 1.3538136661518365, 1.1274061659350991, 1.669511792017147, 2.676446917001158, 4.685147667070851, 4.326833416009322, 3.6256067079957575, 2.3696081249509007, 2.37110837479122, 2.0924890420865268, 2.4581187500152737, 2.835633791051805, 2.375338666839525, 2.2531914999708533, 3.2087143750395626, 4.602140374947339, 7.193128125043586, 2.076934624928981, 4.259098292095587, 6.085594957927242, 2.2771168330218643, 7.075644499855116, 6.326517124893144, 2.3777847080491483, 2.2525609170552343, 3.3350253750104457, 5.419235792011023, 2.3432673329953104, 1.9516751249320805, 6.576815333915874, 1.8355624999385327, 3.118799041956663, 1.3687212918885052, 1.7763315842021257, 2.109433541074395, 4.835304958978668, 3.7360138341318816]",541.3547210828401,964143,001,2023-10-27_12h00.37.384,tutorial7_intentional_binding,2022.2.4,None
0.4,1000,exp,6,0,72,7,545.0869284169748,546.0779484580271,546.0779484580271,546.0779484580271,space,2.5614702079910785,549.0550702915682,549.5147438750137,549.5147438750137,549.5147438750137,462,73,"[6.970356540987268, 1.3543444590177387, 2.5093380000907928, 1.6533958341460675, 1.2592608330305666, 3.3938830827828497, 1.2697460828348994, 1.975330375134945, 6.219619625015184, 2.718223250005394, 1.7921304169576615, 1.68609350011684, 2.2686470421031117, 4.776966624893248, 2.385246125049889, 2.1420566660817713, 3.492726792115718, 1.5364163341000676, 1.352109625004232, 4.193853541044518, 3.0355805419385433, 2.7700699171982706, 1.0352732909377664, 1.4440024169161916, 0.8097910000942647, 1.408856000052765, 1.9361261250451207, 2.3883316670544446, 1.6533445841632783, 1.220898959087208, 1.768879208015278, 2.32682116702199, 4.986290792003274, 2.5090072921011597, 1.9016743749380112, 1.3538112910464406, 1.1274041659198701, 1.6695095840841532, 2.676444916985929, 4.68514549988322, 4.3268315410241485, 3.6256046250928193, 2.369606167078018, 2.3711063750088215, 2.092486707959324, 2.4581167500000447, 2.835631625028327, 2.3753365417942405, 2.253189415903762, 3.2087124579120427, 4.602138415910304, 7.193126166937873, 2.076932624913752, 4.259096167050302, 6.085593000054359, 2.2771143750287592, 7.075642457930371, 6.326513999840245, 2.377782041905448, 2.252558209002018, 3.335023291874677, 5.419233832973987, 2.3432649159803987, 1.95167245878838, 6.576813250081614, 1.8355605418328196, 3.11879708385095, 1.3687186669558287, 1.7763294170144945, 2.1094313331414014, 4.835302792023867, 3.7360114590264857, 5.592640541959554]","[6.970359040889889, 1.3543465421535075, 2.509340250166133, 1.6533978341612965, 1.259263041894883, 3.393885707948357, 1.2697479999624193, 1.9753325839992613, 6.2196223749779165, 2.718225250020623, 1.7921325420029461, 1.6860957089811563, 2.26864904188551, 4.776968624908477, 2.3852483751252294, 2.142058749916032, 3.492729000048712, 1.53641829197295, 1.352111625019461, 4.1938554579392076, 3.0355830418411642, 2.7700720001012087, 1.0352754998020828, 1.444004459073767, 0.8097929160576314, 1.4088582501281053, 1.9361284170299768, 2.3883338749874383, 1.6533465420361608, 1.220900959102437, 1.7688813752029091, 2.3268232920672745, 4.986293042078614, 2.5090093340259045, 1.9016764999832958, 1.3538136661518365, 1.1274061659350991, 1.669511792017147, 2.676446917001158, 4.685147667070851, 4.326833416009322, 3.6256067079957575, 2.3696081249509007, 2.37110837479122, 2.0924890420865268, 2.4581187500152737, 2.835633791051805, 2.375338666839525, 2.2531914999708533, 3.2087143750395626, 4.602140374947339, 7.193128125043586, 2.076934624928981, 4.259098292095587, 6.085594957927242, 2.2771168330218643, 7.075644499855116, 6.326517124893144, 2.3777847080491483, 2.2525609170552343, 3.3350253750104457, 5.419235792011023, 2.3432673329953104, 1.9516751249320805, 6.576815333915874, 1.8355624999385327, 3.118799041956663, 1.3687212918885052, 1.7763315842021257, 2.109433541074395, 4.835304958978668, 3.7360138341318816, 5.592644917080179]",,964143,001,2023-10-27_12h00.37.384,tutorial7_intentional_binding,2022.2.4,None
0.1,1000,exp,6,1,73,3,555.1040764169302,556.0885725000408,556.0885725000408,556.0965318749659,space,1.3730599170085043,557.5716902,558.0317309580278,558.0317309580278,558.0317309580278,227,74,"[6.970356540987268, 1.3543444590177387, 2.5093380000907928, 1.6533958341460675, 1.2592608330305666, 3.3938830827828497, 1.2697460828348994, 1.975330375134945, 6.219619625015184, 2.718223250005394, 1.7921304169576615, 1.68609350011684, 2.2686470421031117, 4.776966624893248, 2.385246125049889, 2.1420566660817713, 3.492726792115718, 1.5364163341000676, 1.352109625004232, 4.193853541044518, 3.0355805419385433, 2.7700699171982706, 1.0352732909377664, 1.4440024169161916, 0.8097910000942647, 1.408856000052765, 1.9361261250451207, 2.3883316670544446, 1.6533445841632783, 1.220898959087208, 1.768879208015278, 2.32682116702199, 4.986290792003274, 2.5090072921011597, 1.9016743749380112, 1.3538112910464406, 1.1274041659198701, 1.6695095840841532, 2.676444916985929, 4.68514549988322, 4.3268315410241485, 3.6256046250928193, 2.369606167078018, 2.3711063750088215, 2.092486707959324, 2.4581167500000447, 2.835631625028327, 2.3753365417942405, 2.253189415903762, 3.2087124579120427, 4.602138415910304, 7.193126166937873, 2.076932624913752, 4.259096167050302, 6.085593000054359, 2.2771143750287592, 7.075642457930371, 6.326513999840245, 2.377782041905448, 2.252558209002018, 3.335023291874677, 5.419233832973987, 2.3432649159803987, 1.95167245878838, 6.576813250081614, 1.8355605418328196, 3.11879708385095, 1.3687186669558287, 1.7763294170144945, 2.1094313331414014, 4.835302792023867, 3.7360114590264857, 5.592640541959554, 5.409667332889512]","[6.970359040889889, 1.3543465421535075, 2.509340250166133, 1.6533978341612965, 1.259263041894883, 3.393885707948357, 1.2697479999624193, 1.9753325839992613, 6.2196223749779165, 2.718225250020623, 1.7921325420029461, 1.6860957089811563, 2.26864904188551, 4.776968624908477, 2.3852483751252294, 2.142058749916032, 3.492729000048712, 1.53641829197295, 1.352111625019461, 4.1938554579392076, 3.0355830418411642, 2.7700720001012087, 1.0352754998020828, 1.444004459073767, 0.8097929160576314, 1.4088582501281053, 1.9361284170299768, 2.3883338749874383, 1.6533465420361608, 1.220900959102437, 1.7688813752029091, 2.3268232920672745, 4.986293042078614, 2.5090093340259045, 1.9016764999832958, 1.3538136661518365, 1.1274061659350991, 1.669511792017147, 2.676446917001158, 4.685147667070851, 4.326833416009322, 3.6256067079957575, 2.3696081249509007, 2.37110837479122, 2.0924890420865268, 2.4581187500152737, 2.835633791051805, 2.375338666839525, 2.2531914999708533, 3.2087143750395626, 4.602140374947339, 7.193128125043586, 2.076934624928981, 4.259098292095587, 6.085594957927242, 2.2771168330218643, 7.075644499855116, 6.326517124893144, 2.3777847080491483, 2.2525609170552343, 3.3350253750104457, 5.419235792011023, 2.3432673329953104, 1.9516751249320805, 6.576815333915874, 1.8355624999385327, 3.118799041956663, 1.3687212918885052, 1.7763315842021257, 2.109433541074395, 4.835304958978668, 3.7360138341318816, 5.592644917080179, 5.409669249784201]",,964143,001,2023-10-27_12h00.37.384,tutorial7_intentional_binding,2022.2.4,None
